"Time (s)","Acceleration x (m/s^2)","Acceleration y (m/s^2)","Acceleration z (m/s^2)"
1.386498280E-1,9.905115128E0,2.537931204E-1,-3.924216509E0
1.406513280E-1,9.905115128E0,2.537931204E-1,-3.924216509E0
1.426526610E-1,9.905115128E0,2.537931204E-1,-3.924216509E0
1.446541610E-1,1.203601933E1,4.836435020E-1,-5.655277252E0
1.466555610E-1,1.202404785E1,4.549122155E-1,-5.638517380E0
1.486568940E-1,1.202644253E1,4.429408312E-1,-5.621757030E0
1.506583220E-1,1.201207638E1,4.525179267E-1,-5.609786034E0
1.526596970E-1,1.198813438E1,4.477293789E-1,-5.590631485E0
1.546612520E-1,1.197376823E1,4.381522834E-1,-5.559505939E0
1.566626520E-1,1.197137451E1,4.213923812E-1,-5.535563469E0
1.586640150E-1,1.196179676E1,4.118152559E-1,-5.490072250E0
1.606653480E-1,1.195221996E1,3.663240373E-1,-5.430215359E0
1.626667320E-1,1.195461369E1,3.471698463E-1,-5.411061287E0
1.646680890E-1,1.196658516E1,3.064671755E-1,-5.360781193E0
1.666694890E-1,1.198573971E1,2.633702159E-1,-5.339232922E0
1.686708640E-1,1.200010490E1,2.657645047E-1,-5.303318501E0
1.706722160E-1,1.199771118E1,2.226675600E-1,-5.243461609E0
1.726838270E-1,1.200728798E1,1.771763414E-1,-5.190787792E0
1.746851950E-1,1.201447105E1,1.460507661E-1,-5.159662247E0
1.766918450E-1,1.202644253E1,1.125309169E-1,-5.102199554E0
1.786932250E-1,1.201925945E1,1.053480953E-1,-5.095016956E0
1.806945880E-1,1.205038548E1,6.464541703E-2,-5.073468208E0
1.826959350E-1,1.205038548E1,4.309694469E-2,-5.020794392E0
1.846973100E-1,1.204799080E1,4.070267081E-2,-5.018400192E0
1.866986700E-1,1.206235695E1,1.915419847E-2,-4.958543301E0
1.887003620E-1,1.207911682E1,1.675992459E-2,-4.896292210E0
1.907017320E-1,1.209108734E1,-2.394274808E-3,-4.874743462E0
1.927030890E-1,1.209108734E1,0.000000000E0,-4.798126698E0
1.947041920E-1,1.208629894E1,-7.182824425E-3,-4.776578426E0
1.967055580E-1,1.209348202E1,-1.675992459E-2,-4.702355862E0
1.987069240E-1,1.209108734E1,-2.394274808E-3,-4.659258842E0
2.007082570E-1,1.207193375E1,7.182824425E-3,-4.649681568E0
2.027096230E-1,1.208869362E1,4.788549617E-3,-4.625739098E0
2.047109560E-1,1.207911682E1,9.577099234E-3,-4.585036278E0
2.067122890E-1,1.208390522E1,7.182824425E-3,-4.577853203E0
2.087133890E-1,1.205996227E1,7.182824425E-3,-4.537150860E0
2.107147220E-1,1.203362560E1,1.915419847E-2,-4.510813713E0
2.127167880E-1,1.202404785E1,2.154847234E-2,-4.482082367E0
2.147180880E-1,1.199292278E1,3.830839694E-2,-4.458139896E0
2.167192540E-1,1.198573971E1,5.267404765E-2,-4.431802750E0
2.187205870E-1,1.191870022E1,6.943397224E-2,-4.374340057E0
2.207219530E-1,1.186602592E1,8.379961550E-2,-4.316877365E0
2.227232860E-1,1.183250618E1,1.005595401E-1,-4.304905891E0
2.247279860E-1,1.178462029E1,1.292908341E-1,-4.261809349E0
2.267293190E-1,1.169603252E1,1.843591630E-1,-4.223500729E0
2.287304190E-1,1.167448425E1,1.939362586E-1,-4.221106529E0
2.307317520E-1,1.158589554E1,2.106961906E-1,-4.187586784E0
2.347282850E-1,1.146139336E1,2.609759569E-1,-4.130124092E0
2.387274510E-1,1.126266861E1,2.944957912E-1,-4.015198708E0
2.407285510E-1,1.121717739E1,3.040728867E-1,-3.993650436E0
2.427299170E-1,1.113337803E1,2.921015322E-1,-3.952947617E0
2.447312500E-1,1.108788681E1,3.136500120E-1,-3.912245035E0
2.467325830E-1,1.102324104E1,3.112557232E-1,-3.861965179E0
2.487336490E-1,1.093704700E1,3.016786277E-1,-3.811685562E0
2.507349820E-1,1.087719059E1,2.944957912E-1,-3.768588543E0
2.527363150E-1,1.081015110E1,2.968900800E-1,-3.727885962E0
2.547379150E-1,1.072874546E1,2.777358890E-1,-3.677606106E0
2.567392480E-1,1.069043732E1,2.825244367E-1,-3.658451796E0
2.587405480E-1,1.060903168E1,2.681587934E-1,-3.593806505E0
2.607419140E-1,1.054438591E1,2.466102988E-1,-3.538738251E0
2.627432470E-1,1.048692322E1,2.490045726E-1,-3.495641232E0
2.647445800E-1,1.041749001E1,2.202732861E-1,-3.440572977E0
2.667459460E-1,1.037678719E1,2.083019018E-1,-3.421418667E0
2.687475460E-1,1.030256462E1,1.819648892E-1,-3.335224867E0
2.707488790E-1,1.025467873E1,1.460507661E-1,-3.304099321E0
2.727495120E-1,1.020200539E1,1.532335877E-1,-3.284945011E0
2.747508450E-1,1.012059975E1,1.268965602E-1,-3.232270956E0
2.767523450E-1,1.007750225E1,9.577099234E-2,-3.189173937E0
2.787537110E-1,1.005356026E1,1.005595401E-1,-3.179596901E0
2.807582440E-1,9.984126091E0,6.943397224E-2,-3.160442829E0
2.827595770E-1,9.929058075E0,5.267404765E-2,-3.117345810E0
2.867589100E-1,9.866806030E0,3.351984918E-2,-3.055094719E0
2.887604760E-1,9.821314812E0,1.675992459E-2,-3.062277555E0
2.907618420E-1,9.794978142E0,1.197137404E-2,-3.021574736E0
2.927631750E-1,9.727938652E0,7.182824425E-3,-2.990449190E0
2.947645080E-1,9.692024231E0,-1.675992459E-2,-2.983266354E0
2.967658410E-1,9.641744614E0,-2.394274808E-2,-2.952140808E0
2.987671740E-1,9.610619545E0,-3.830839694E-2,-2.932986736E0
3.007687400E-1,9.584281921E0,-7.661679387E-2,-2.923409462E0
3.027700730E-1,9.572310448E0,-1.245022863E-1,-2.889889717E0
3.047714060E-1,9.584281921E0,-1.388679445E-1,-2.877918243E0
3.067727720E-1,9.574705124E0,-1.580221355E-1,-2.837215662E0
3.087741050E-1,9.565128326E0,-1.843591630E-1,-2.813272953E0
3.107778050E-1,9.560338974E0,-2.322446555E-1,-2.782147408E0
3.127791710E-1,9.557945251E0,-2.346389294E-1,-2.772570133E0
3.147802710E-1,9.541185379E0,-2.681587934E-1,-2.707924843E0
3.167816040E-1,9.548367500E0,-2.753416002E-1,-2.674404860E0
3.187829700E-1,9.534002304E0,-2.944957912E-1,-2.604970932E0
3.207843030E-1,9.526819229E0,-3.064671755E-1,-2.549902678E0
3.227856360E-1,9.493299484E0,-3.184385598E-1,-2.528354168E0
3.247870020E-1,9.454991341E0,-3.447755575E-1,-2.437371731E0
3.267881020E-1,9.433443069E0,-3.543526828E-1,-2.370332003E0
3.287894350E-1,9.426259995E0,-3.543526828E-1,-2.312869549E0
3.307908010E-1,9.380768776E0,-3.471698463E-1,-2.248224020E0
3.327921340E-1,9.337671280E0,-3.423812985E-1,-2.171607256E0
3.347934670E-1,9.320911407E0,-3.256213665E-1,-2.164424419E0
3.367948330E-1,9.265843391E0,-3.064671755E-1,-2.154847383E0
3.387968990E-1,9.222746849E0,-2.992843390E-1,-2.138087511E0
3.427971320E-1,9.143735886E0,-2.968900800E-1,-2.114144564E0
3.447984650E-1,9.134158134E0,-2.849186957E-1,-2.121327400E0
3.467997980E-1,9.095849991E0,-2.944957912E-1,-2.128510237E0
3.488012310E-1,9.021627426E0,-2.825244367E-1,-2.154847383E0
3.508025640E-1,8.985713005E0,-2.897072434E-1,-2.159635782E0
3.528038970E-1,8.925856590E0,-2.753416002E-1,-2.164424419E0
3.548052630E-1,8.856422424E0,-2.705530524E-1,-2.174001455E0
3.568065960E-1,8.818114281E0,-2.849186957E-1,-2.171607256E0
3.588079290E-1,8.760651588E0,-2.801301479E-1,-2.157241583E0
3.608092950E-1,8.700794220E0,-3.112557232E-1,-2.145270348E0
3.628106280E-1,8.672063828E0,-3.112557232E-1,-2.135693073E0
3.648117280E-1,8.609811783E0,-3.375927508E-1,-2.130904675E0
3.668130610E-1,8.597841263E0,-3.399870098E-1,-2.109356165E0
3.688143940E-1,8.542772293E0,-3.447755575E-1,-2.080624819E0
3.728146930E-1,8.504464149E0,-3.543526828E-1,-2.032739401E0
3.748162590E-1,8.473338127E0,-3.543526828E-1,-1.958516836E0
3.768176250E-1,8.411087036E0,-3.567469418E-1,-1.903448462E0
3.788189580E-1,8.334470749E0,-3.735068738E-1,-1.817254543E0
3.808202910E-1,8.308133125E0,-4.046324492E-1,-1.788523316E0
3.828216570E-1,8.312922478E0,-3.759011328E-1,-1.786128998E0
3.848227570E-1,8.312922478E0,-3.471698463E-1,-1.786128998E0
3.868243230E-1,8.209968567E0,-3.040728867E-1,-1.766974807E0
3.888256890E-1,8.121379852E0,-3.136500120E-1,-1.738243461E0
3.908270220E-1,8.118986130E0,-3.208328187E-1,-1.723877907E0
3.928283550E-1,8.147717476E0,-3.160442710E-1,-1.649655342E0
3.948297210E-1,8.169265747E0,-4.022381604E-1,-1.539518714E0
3.968310540E-1,8.123774529E0,-5.123748183E-1,-1.268965602E0
3.988383200E-1,7.934626579E0,-4.022381604E-1,-1.185166001E0
4.008396860E-1,7.960963726E0,-3.687183261E-1,-1.166011810E0
4.028402860E-1,8.092648506E0,-3.208328187E-1,-1.197137356E0
4.048416190E-1,8.126168251E0,-3.160442710E-1,-1.276148438E0
4.068429850E-1,8.126168251E0,-3.016786277E-1,-1.292908430E0
4.088442510E-1,8.068706512E0,-2.968900800E-1,-1.379102230E0
4.108455840E-1,8.051946640E0,-3.208328187E-1,-1.450930476E0
4.128469500E-1,8.056735039E0,-3.759011328E-1,-1.448536277E0
4.148482830E-1,8.001666069E0,-3.878725171E-1,-1.424593568E0
4.168496160E-1,7.992089272E0,-3.974496126E-1,-1.429382086E0
4.188507490E-1,8.025609016E0,-4.237866402E-1,-1.326428294E0
4.208518490E-1,8.049551964E0,-4.381522834E-1,-1.297696948E0
4.228531820E-1,8.042368889E0,-3.974496126E-1,-1.333611012E0
4.248555150E-1,8.071100235E0,-3.974496126E-1,-1.302485466E0
4.268568480E-1,8.121379852E0,-3.950553536E-1,-1.256994247E0
4.288581810E-1,8.150111198E0,-4.166038036E-1,-1.189954638E0
4.308595470E-1,8.166871071E0,-4.285751879E-1,-1.041509509E0
4.328606470E-1,8.212362289E0,-4.166038036E-1,-9.624984860E-1
4.348619800E-1,8.286584854E0,-3.902668059E-1,-1.003201127E0
4.368633130E-1,8.444606781E0,-2.801301479E-1,-1.067846537E0
4.388646460E-1,8.475732803E0,-2.490045726E-1,-1.041509509E0
4.408659790E-1,8.454184532E0,-2.394274771E-1,-1.005595446E0
4.428673120E-1,8.485309601E0,-2.298503816E-1,-9.122186899E-1
4.448688780E-1,8.530800819E0,-2.059076279E-1,-8.858816624E-1
4.468702440E-1,8.602629662E0,-1.436564922E-1,-9.026415944E-1
4.488715770E-1,8.638543129E0,-9.337671846E-2,-9.601042271E-1
4.508729100E-1,8.640937805E0,-8.858817071E-2,-9.840469360E-1
4.528742760E-1,8.648120880E0,-6.225114316E-2,-9.553156495E-1
4.548756090E-1,8.676852226E0,-2.154847234E-2,-9.624984860E-1
4.568769420E-1,8.684034348E0,2.394274808E-3,-9.385557175E-1
4.608729750E-1,8.930644989E0,1.675992310E-1,-9.002473354E-1
4.628743080E-1,8.968953133E0,2.106961906E-1,-9.840469360E-1
4.648756740E-1,8.961771011E0,2.777358890E-1,-1.022355318E0
4.668777400E-1,8.921068192E0,2.921015322E-1,-1.024749637E0
4.688788400E-1,8.865999222E0,2.753416002E-1,-9.936240315E-1
4.708802060E-1,8.810931206E0,2.992843390E-1,-9.529213905E-1
4.728815390E-1,8.803748131E0,2.873129845E-1,-9.241901040E-1
4.748828720E-1,8.786988258E0,2.777358890E-1,-8.427847624E-1
4.768842380E-1,8.772623062E0,2.609759569E-1,-7.661679387E-1
4.788858040E-1,8.779806137E0,2.490045726E-1,-6.991282701E-1
4.808873700E-1,8.784594536E0,2.083019018E-1,-5.770202279E-1
4.828887360E-1,8.801354408E0,1.939362586E-1,-5.051919818E-1
4.848893360E-1,8.813325882E0,2.083019018E-1,-4.908263385E-1
4.868906690E-1,8.818114281E0,1.747820675E-1,-4.213923812E-1
4.888920350E-1,8.854028702E0,1.675992310E-1,-3.759011328E-1
4.908933680E-1,8.844450951E0,1.340793967E-1,-2.897072434E-1
4.928949340E-1,8.863605499E0,1.029538140E-1,-1.987248063E-1
4.948963000E-1,8.887548447E0,9.577099234E-2,-1.029538140E-1
4.968976330E-1,8.885153770E0,9.816526622E-2,-5.506832153E-2
4.988989660E-1,8.945011139E0,6.225114316E-2,9.577099234E-3
5.009003320E-1,8.940221786E0,5.506832153E-2,5.027977005E-2
5.029014320E-1,8.961771011E0,4.070267081E-2,1.029538140E-1
5.049056320E-1,8.983319283E0,4.549122229E-2,1.436564922E-1
5.069066980E-1,9.007262230E0,4.070267081E-2,2.130904645E-1
5.089080310E-1,9.021627426E0,2.873129770E-2,3.064671755E-1
5.109093640E-1,9.035993576E0,0.000000000E0,3.711125851E-1
5.129106970E-1,9.033598900E0,-2.633702382E-2,4.956148863E-1
5.149120300E-1,9.081484795E0,-6.703969836E-2,6.033572555E-1
5.169133630E-1,9.086273193E0,-8.379961550E-2,6.512427330E-1
5.189146960E-1,9.083878517E0,-9.816526622E-2,7.470137477E-1
5.209160290E-1,9.105426788E0,-1.436564922E-1,8.044763207E-1
5.229173950E-1,9.098244667E0,-1.580221355E-1,8.547561169E-1
5.249184950E-1,9.122186661E0,-1.939362586E-1,8.643332124E-1
5.269190950E-1,9.124581337E0,-2.083019018E-1,8.930644989E-1
5.289206950E-1,9.129369736E0,-2.346389294E-1,8.978530765E-1
5.309220280E-1,9.119792938E0,-2.537931204E-1,9.122186899E-1
5.329233610E-1,9.119792938E0,-2.921015322E-1,9.337671995E-1
5.349252610E-1,9.122186661E0,-3.088614643E-1,9.505270720E-1
5.369265940E-1,9.143735886E0,-3.112557232E-1,9.648927450E-1
5.389279270E-1,9.122186661E0,-2.968900800E-1,1.000806928E0
5.409292930E-1,9.136552811E0,-2.921015322E-1,1.041509509E0
5.429306260E-1,9.119792938E0,-3.064671755E-1,1.082212210E0
5.449319590E-1,9.093455315E0,-3.160442710E-1,1.094183564E0
5.469333250E-1,9.098244667E0,-3.136500120E-1,1.125309110E0
5.489346580E-1,9.081484795E0,-3.160442710E-1,1.158828974E0
5.509359910E-1,9.095849991E0,-3.208328187E-1,1.163617611E0
5.529395240E-1,9.081484795E0,-3.136500120E-1,1.163617611E0
5.549408570E-1,9.081484795E0,-3.112557232E-1,1.175588965E0
5.569419570E-1,9.095849991E0,-3.136500120E-1,1.173194647E0
5.589433230E-1,9.088666916E0,-3.112557232E-1,1.166011810E0
5.609446560E-1,9.086273193E0,-3.208328187E-1,1.149251938E0
5.629462220E-1,9.079090118E0,-3.136500120E-1,1.103760719E0
5.669463220E-1,9.062330246E0,-3.040728867E-1,1.019961119E0
5.689476550E-1,9.062330246E0,-2.897072434E-1,9.481328130E-1
5.709490210E-1,9.062330246E0,-3.112557232E-1,8.954587579E-1
5.729503540E-1,9.062330246E0,-3.088614643E-1,8.715160489E-1
5.749516870E-1,9.067118645E0,-3.304099143E-1,8.403904438E-1
5.769542870E-1,9.035993576E0,-3.375927508E-1,8.164477348E-1
5.789556200E-1,9.064723969E0,-3.591412306E-1,8.092648983E-1
5.809569530E-1,9.047964096E0,-3.854782581E-1,7.972934842E-1
5.829582860E-1,9.035993576E0,-4.166038036E-1,7.925049663E-1
5.849598520E-1,9.045570374E0,-4.333637357E-1,7.589851022E-1
5.869611850E-1,9.031204224E0,-4.453351200E-1,7.039167881E-1
5.889625180E-1,8.990502357E0,-4.644893110E-1,6.751855016E-1
5.909638510E-1,8.918673515E0,-4.764606953E-1,6.799740195E-1
5.929652170E-1,8.849239349E0,-5.051919818E-1,6.967339516E-1
5.949660170E-1,8.858817101E0,-5.004034638E-1,6.608198285E-1
5.969673500E-1,8.887548447E0,-4.932205975E-1,6.320885420E-1
5.989687160E-1,8.904308319E0,-4.788549542E-1,6.153286099E-1
6.009700490E-1,8.904308319E0,-4.764606953E-1,5.961744189E-1
6.029713820E-1,8.882759094E0,-4.477293789E-1,5.554717779E-1
6.049727480E-1,8.842057228E0,-4.429408312E-1,5.482889414E-1
6.069740810E-1,8.806142807E0,-4.429408312E-1,5.219519138E-1
6.089754140E-1,8.655303001E0,-4.597007632E-1,5.722316504E-1
6.109767800E-1,8.676852226E0,-4.477293789E-1,5.746259689E-1
6.149815460E-1,8.763046265E0,-4.046324492E-1,5.698373914E-1
6.169831460E-1,8.741497040E0,-3.902668059E-1,5.746259689E-1
6.189844790E-1,8.688823700E0,-3.854782581E-1,6.009629965E-1
6.209855790E-1,8.636149406E0,-4.022381604E-1,6.249057055E-1
6.229869450E-1,8.624177933E0,-4.118152559E-1,6.632141471E-1
6.249882780E-1,8.607418060E0,-4.142095447E-1,7.110996246E-1
6.269893780E-1,8.614601135E0,-4.118152559E-1,7.709565163E-1
6.289907440E-1,8.616994858E0,-4.333637357E-1,7.877163887E-1
6.309920770E-1,8.645726204E0,-4.309694767E-1,8.595446348E-1
6.329934100E-1,8.648120880E0,-4.261809289E-1,8.882759809E-1
6.350009760E-1,8.657697678E0,-4.525179267E-1,9.529213905E-1
6.370016090E-1,8.660092354E0,-4.453351200E-1,9.960182905E-1
6.390029420E-1,8.655303001E0,-4.620950520E-1,1.029538155E0
6.410043080E-1,8.684034348E0,-4.549122155E-1,1.077423692E0
6.430056410E-1,8.691217422E0,-4.501236677E-1,1.118126392E0
6.450069740E-1,8.715160370E0,-4.477293789E-1,1.144463301E0
6.470083400E-1,8.710371971E0,-4.716721475E-1,1.173194647E0
6.490096730E-1,8.746285439E0,-4.573064744E-1,1.199531674E0
6.510110060E-1,8.758256912E0,-4.573064744E-1,1.211503029E0
6.530120720E-1,8.803748131E0,-4.932205975E-1,1.259388566E0
6.550134050E-1,8.856422424E0,-5.075862408E-1,1.300091267E0
6.570147380E-1,8.882759094E0,-5.291347504E-1,1.321639657E0
6.590160710E-1,8.906702042E0,-5.387118459E-1,1.350371003E0
6.610174040E-1,8.928250313E0,-5.458946824E-1,1.362342358E0
6.630187700E-1,8.959376335E0,-5.746259689E-1,1.395862222E0
6.650201030E-1,9.019232750E0,-6.009629965E-1,1.422199249E0
6.670214360E-1,9.024022102E0,-6.177229285E-1,1.450930476E0
6.690228020E-1,9.107821465E0,-6.680026650E-1,1.491633177E0
6.710241350E-1,9.196409225E0,-6.751855016E-1,1.515576005E0
6.730254680E-1,9.237112045E0,-7.110996246E-1,1.527547359E0
6.770239010E-1,9.378374100E0,-7.661679387E-1,1.565855742E0
6.790252340E-1,9.471751213E0,-7.565908432E-1,1.594586968E0
6.810268340E-1,9.498087883E0,-7.661679387E-1,1.604164124E0
6.830281670E-1,9.553156853E0,-7.805336118E-1,1.618529797E0
6.850292670E-1,9.624984741E0,-8.164477348E-1,1.642472506E0
6.870308670E-1,9.711178780E0,-8.164477348E-1,1.668809533E0
6.890322000E-1,9.756669998E0,-8.044763207E-1,1.659232497E0
6.910340660E-1,9.840469360E0,-8.164477348E-1,1.640078187E0
6.930354320E-1,9.902720451E0,-8.020820618E-1,1.661626697E0
6.970313650E-1,9.991309166E0,-7.948992252E-1,1.685569525E0
6.990327310E-1,1.002004051E1,-7.948992252E-1,1.683175206E0
7.010340640E-1,1.002961731E1,-7.996878028E-1,1.685569525E0
7.030353970E-1,1.009665680E1,-7.996878028E-1,1.683175206E0
7.050367630E-1,1.014933109E1,-7.733507752E-1,1.692752242E0
7.070380960E-1,1.018045616E1,-7.470137477E-1,1.671203852E0
7.090394290E-1,1.023313046E1,-7.326480746E-1,1.697540879E0
7.110415290E-1,1.025946712E1,-7.182824612E-1,1.714300752E0
7.130431290E-1,1.032411289E1,-6.967339516E-1,1.738243461E0
7.150479620E-1,1.038397026E1,-7.015225291E-1,1.766974807E0
7.170490620E-1,1.040791225E1,-7.087053657E-1,1.774157643E0
7.190503950E-1,1.045819283E1,-6.895511150E-1,1.790917516E0
7.210517280E-1,1.052044392E1,-6.584255695E-1,1.834014535E0
7.230530610E-1,1.054438591E1,-6.560313106E-1,1.836408734E0
7.250543940E-1,1.060424328E1,-6.440598965E-1,1.829225898E0
7.270557270E-1,1.060663700E1,-6.153286099E-1,1.814860344E0
7.290570600E-1,1.064494610E1,-6.105400920E-1,1.826831698E0
7.310583930E-1,1.066888809E1,-6.153286099E-1,1.836408734E0
7.330597590E-1,1.068564892E1,-6.177229285E-1,1.834014535E0
7.350610920E-1,1.069283104E1,-6.201171875E-1,1.834014535E0
7.370639580E-1,1.069283104E1,-6.320885420E-1,1.836408734E0
7.390653240E-1,1.067128277E1,-6.225114465E-1,1.831620216E0
7.410666570E-1,1.068085957E1,-6.033572555E-1,1.853168726E0
7.430679900E-1,1.064733982E1,-6.225114465E-1,1.872322917E0
7.450695900E-1,1.065452290E1,-6.033572555E-1,1.867534399E0
7.470709230E-1,1.063536835E1,-6.057515144E-1,1.908236980E0
7.490722560E-1,1.059466648E1,-6.201171875E-1,1.932179809E0
7.510728560E-1,1.057072353E1,-6.344828010E-1,1.936968327E0
7.530741890E-1,1.054917526E1,-6.249057055E-1,1.992036581E0
7.550755220E-1,1.054199219E1,-6.368771195E-1,2.015979290E0
7.570768880E-1,1.053002071E1,-6.488484740E-1,2.049499273E0
7.590782210E-1,1.051326084E1,-6.608198285E-1,2.083019018E0
7.610795540E-1,1.050128937E1,-6.727912426E-1,2.102173328E0
7.630809200E-1,1.048931789E1,-6.775797606E-1,2.142875910E0
7.650822530E-1,1.047974110E1,-6.751855016E-1,2.185972929E0
7.670835860E-1,1.046298122E1,-6.847625971E-1,2.200338602E0
7.690849520E-1,1.043185520E1,-6.871568561E-1,2.195549965E0
7.710855520E-1,1.040551853E1,-7.110996246E-1,2.224281311E0
7.730868850E-1,1.038875866E1,-7.134938836E-1,2.229069948E0
7.770863510E-1,1.036721039E1,-7.326480746E-1,2.236252785E0
7.790876840E-1,1.036002731E1,-7.326480746E-1,2.238646984E0
7.810890500E-1,1.031932449E1,-7.374366522E-1,2.257801056E0
7.830903830E-1,1.032171917E1,-7.302538157E-1,2.253012657E0
7.850917160E-1,1.030016994E1,-7.110996246E-1,2.238646984E0
7.870930820E-1,1.028580475E1,-7.278595567E-1,2.195549965E0
7.890944150E-1,1.030016994E1,-7.206767201E-1,2.183578730E0
7.910957480E-1,1.025707340E1,-7.015225291E-1,2.169213057E0
7.930970810E-1,1.021637058E1,-7.087053657E-1,2.164424419E0
7.950984140E-1,1.021397591E1,-7.230709791E-1,2.157241583E0
7.990995470E-1,1.020679379E1,-7.374366522E-1,2.159635782E0
8.011008800E-1,1.019242764E1,-7.326480746E-1,2.154847383E0
8.031022460E-1,1.019961071E1,-7.422251701E-1,2.147664547E0
8.051035790E-1,1.019721603E1,-7.470137477E-1,2.142875910E0
8.071049120E-1,1.019003391E1,-7.350423932E-1,2.142875910E0
8.091062780E-1,1.017327404E1,-7.589851022E-1,2.145270348E0
8.111078440E-1,1.016848469E1,-7.398309112E-1,2.121327400E0
8.131091770E-1,1.017087936E1,-7.302538157E-1,2.085413456E0
8.151105430E-1,1.012299347E1,-7.350423932E-1,2.047105074E0
8.171162760E-1,1.012538815E1,-7.398309112E-1,2.030344963E0
8.191177760E-1,1.010383987E1,-7.541965842E-1,1.992036581E0
8.211191420E-1,1.009426212E1,-7.757450342E-1,1.980065227E0
8.231204750E-1,1.005356026E1,-7.757450342E-1,1.956122518E0
8.251218080E-1,1.004158878E1,-7.972934842E-1,1.927391171E0
8.271235410E-1,1.002722263E1,-8.308133483E-1,1.920208454E0
8.291249410E-1,1.000327969E1,-8.475732803E-1,1.922602654E0
8.311262740E-1,9.955394745E0,-8.619389534E-1,1.920208454E0
8.331276400E-1,9.950606346E0,-8.403904438E-1,1.934574008E0
8.351289730E-1,9.912297249E0,-8.643332124E-1,1.951334000E0
8.371303060E-1,9.885960579E0,-8.619389534E-1,1.934574008E0
8.391316720E-1,9.862017632E0,-8.643332124E-1,1.939362645E0
8.411330050E-1,9.850046158E0,-8.667274714E-1,1.941756845E0
8.431343380E-1,9.804554939E0,-8.643332124E-1,1.975276709E0
8.451357040E-1,9.809344292E0,-8.786988258E-1,1.989642382E0
8.471370370E-1,9.804554939E0,-9.026415944E-1,2.042316437E0
8.491387030E-1,9.780612946E0,-8.882759809E-1,2.068653345E0
8.511400690E-1,9.766246796E0,-8.930644989E-1,2.083019018E0
8.531414020E-1,9.732727051E0,-8.858816624E-1,2.106961727E0
8.551427350E-1,9.737515450E0,-8.691217303E-1,2.128510237E0
8.571443350E-1,9.720755577E0,-8.763045669E-1,2.166818619E0
8.591456680E-1,9.692024231E0,-8.451790214E-1,2.178790092E0
8.611470010E-1,9.696812630E0,-8.475732803E-1,2.209915638E0
8.631483340E-1,9.689630508E0,-8.475732803E-1,2.219492674E0
8.651496670E-1,9.675264359E0,-8.332076073E-1,2.236252785E0
8.671510000E-1,9.692024231E0,-8.356019258E-1,2.245829821E0
8.691523330E-1,9.701601982E0,-8.212362528E-1,2.284138203E0
8.711536660E-1,9.689630508E0,-8.332076073E-1,2.322446585E0
8.731550320E-1,9.692024231E0,-8.308133483E-1,2.336812258E0
8.751563650E-1,9.692024231E0,-8.116591573E-1,2.382303476E0
8.791544980E-1,9.684841156E0,-7.877163887E-1,2.418217659E0
8.811558310E-1,9.660899162E0,-7.661679387E-1,2.466103077E0
8.831571640E-1,9.646533012E0,-7.709565163E-1,2.490045786E0
8.851585300E-1,9.651321411E0,-7.709565163E-1,2.535537004E0
8.871594960E-1,9.644139290E0,-7.877163887E-1,2.552296877E0
8.891607620E-1,9.622590065E0,-7.877163887E-1,2.564268351E0
8.911621280E-1,9.605830193E0,-7.781392932E-1,2.581028223E0
8.931641940E-1,9.603436470E0,-7.853221297E-1,2.573845387E0
8.951655270E-1,9.598648071E0,-7.685621977E-1,2.588211060E0
8.971668930E-1,9.613013268E0,-8.092648983E-1,2.621730804E0
8.991682260E-1,9.617801666E0,-8.332076073E-1,2.648067951E0
9.011693920E-1,9.608224869E0,-8.188419938E-1,2.657644987E0
9.031714920E-1,9.584281921E0,-8.499675393E-1,2.660039425E0
9.051728250E-1,9.598648071E0,-8.786988258E-1,2.640885115E0
9.071741580E-1,9.586676598E0,-8.882759809E-1,2.652856588E0
9.091751910E-1,9.577098846E0,-9.026415944E-1,2.693559170E0
9.111765240E-1,9.560338974E0,-9.289786220E-1,2.691164970E0
9.131778570E-1,9.560338974E0,-9.457385540E-1,2.715107679E0
9.151792230E-1,9.555550575E0,-9.696813226E-1,2.715107679E0
9.171803230E-1,9.567522049E0,-9.816526771E-1,2.700742006E0
9.191816560E-1,9.555550575E0,-9.744698405E-1,2.710319042E0
9.211833890E-1,9.543579102E0,-1.000806928E0,2.707924843E0
9.231847220E-1,9.534002304E0,-1.012778282E0,2.676799297E0
9.251860550E-1,9.498087883E0,-9.960182905E-1,2.640885115E0
9.271874210E-1,9.474145889E0,-1.007989645E0,2.628913641E0
9.291887540E-1,9.450202942E0,-1.022355318E0,2.614548206E0
9.311900870E-1,9.411893845E0,-1.007989645E0,2.578634024E0
9.331914200E-1,9.407105446E0,-1.003201127E0,2.576239586E0
9.351927530E-1,9.375980377E0,-1.015172482E0,2.540325642E0
9.371940860E-1,9.335277557E0,-1.022355318E0,2.492439985E0
9.391954190E-1,9.325700760E0,-1.039115310E0,2.473285913E0
9.411967520E-1,9.294574738E0,-1.041509509E0,2.423006058E0
9.431981180E-1,9.261054993E0,-1.039115310E0,2.394274712E0
9.451994510E-1,9.249083519E0,-1.041509509E0,2.379909277E0
9.472007840E-1,9.215563774E0,-1.039115310E0,2.336812258E0
9.492021500E-1,9.186832428E0,-1.043903828E0,2.305686712E0
9.512034830E-1,9.150918007E0,-1.051086664E0,2.274561167E0
9.532040830E-1,9.119792938E0,-1.048692346E0,2.229069948E0
9.552054490E-1,9.105426788E0,-1.046298146E0,2.224281311E0
9.572067820E-1,9.050358772E0,-1.067846537E0,2.212309837E0
9.592081150E-1,9.009655952E0,-1.039115310E0,2.202732801E0
9.612096480E-1,9.002472878E0,-1.051086664E0,2.212309837E0
9.632102480E-1,8.976136208E0,-1.046298146E0,2.195549965E0
9.652115810E-1,8.935433388E0,-1.022355318E0,2.212309837E0
9.672129470E-1,8.892336845E0,-1.007989645E0,2.219492674E0
9.692142800E-1,8.861210823E0,-1.005595446E0,2.238646984E0
9.712156130E-1,8.815719604E0,-1.007989645E0,2.238646984E0
9.732169790E-1,8.803748131E0,-9.912297726E-1,2.241041183E0
9.752183120E-1,8.794171333E0,-9.768640995E-1,2.272166729E0
9.772196450E-1,8.789382935E0,-9.553156495E-1,2.267378330E0
9.792210110E-1,8.748680115E0,-9.265843630E-1,2.264983892E0
9.812219770E-1,8.755863190E0,-9.194015265E-1,2.281744003E0
9.832233100E-1,8.755863190E0,-9.122186899E-1,2.291321039E0
9.852246760E-1,8.739103317E0,-9.241901040E-1,2.305686712E0
9.872260090E-1,8.741497040E0,-9.217957854E-1,2.308080912E0
9.892273420E-1,8.736708641E0,-9.361614585E-1,2.315263748E0
9.912287080E-1,8.717555046E0,-9.385557175E-1,2.353572130E0
9.932300410E-1,8.684034348E0,-9.385557175E-1,2.367937803E0
9.952313740E-1,8.693612099E0,-9.433442950E-1,2.379909277E0
9.972327400E-1,8.679245949E0,-9.457385540E-1,2.413429022E0
9.992340730E-1,8.657697678E0,-9.337671995E-1,2.427794695E0
1.001235406E0,8.652909279E0,-9.505270720E-1,2.473285913E0
1.003236739E0,8.640937805E0,-9.529213905E-1,2.511594296E0
1.005238072E0,8.645726204E0,-9.624984860E-1,2.528354168E0
1.007239172E0,8.660092354E0,-9.912297726E-1,2.549902678E0
1.009240505E0,8.681640625E0,-9.840469360E-1,2.573845387E0
1.011241838E0,8.707977295E0,-9.840469360E-1,2.588211060E0
1.013243204E0,8.751074791E0,-1.005595446E0,2.609759569E0
1.015244537E0,8.777411461E0,-1.029538155E0,2.619336605E0
1.017245870E0,8.791776657E0,-1.043903828E0,2.636096478E0
1.019247236E0,8.818114281E0,-1.036720991E0,2.621730804E0
1.021248869E0,8.842057228E0,-1.053480864E0,2.616942406E0
1.023250202E0,8.854028702E0,-1.053480864E0,2.600182533E0
1.025251568E0,8.887548447E0,-1.065452337E0,2.616942406E0
1.027252901E0,8.913885117E0,-1.070240855E0,2.619336605E0
1.029254234E0,8.949799538E0,-1.084606528E0,2.616942406E0
1.031255600E0,8.947404861E0,-1.110943556E0,2.597788095E0
1.033257066E0,8.976136208E0,-1.101366401E0,2.604970932E0
1.035258399E0,8.990502357E0,-1.070240855E0,2.585816860E0
1.037259499E0,9.028810501E0,-1.055875182E0,2.564268351E0
1.039260832E0,9.050358772E0,-1.058269501E0,2.559479713E0
1.041262165E0,9.079090118E0,-1.048692346E0,2.533142805E0
1.043263531E0,9.103033066E0,-1.058269501E0,2.511594296E0
1.045264864E0,9.126976013E0,-1.046298146E0,2.511594296E0
1.047266197E0,9.150918007E0,-1.005595446E0,2.434977531E0
1.049267563E0,9.155706406E0,-9.912297726E-1,2.425400496E0
1.051268896E0,9.208380699E0,-9.936240315E-1,2.384697676E0
1.053270229E0,9.217958450E0,-9.696813226E-1,2.320052385E0
1.055271595E0,9.239506721E0,-9.672870040E-1,2.293715239E0
1.057272928E0,9.284997940E0,-9.553156495E-1,2.255406857E0
1.059274028E0,9.308940887E0,-9.529213905E-1,2.243435383E0
1.061275394E0,9.328094482E0,-9.672870040E-1,2.231464148E0
1.063276727E0,9.349642754E0,-9.648927450E-1,2.236252785E0
1.065278060E0,9.380768776E0,-9.696813226E-1,2.224281311E0
1.067279660E0,9.402317047E0,-9.768640995E-1,2.231464148E0
1.069280993E0,9.411893845E0,-9.672870040E-1,2.248224020E0
1.071282326E0,9.443019867E0,-9.361614585E-1,2.260195494E0
1.073283659E0,9.443019867E0,-9.265843630E-1,2.236252785E0
1.075284992E0,9.433443069E0,-9.241901040E-1,2.262589693E0
1.077286325E0,9.450202942E0,-9.194015265E-1,2.269772530E0
1.079287658E0,9.457385063E0,-9.170072675E-1,2.312869549E0
1.081288691E0,9.438231468E0,-9.313728809E-1,2.324840784E0
1.083290057E0,9.435836792E0,-9.337671995E-1,2.353572130E0
1.085291390E0,9.471751213E0,-9.217957854E-1,2.387091875E0
1.087293456E0,9.464568138E0,-9.265843630E-1,2.408640385E0
1.089294822E0,9.476539612E0,-9.409499764E-1,2.418217659E0
1.091296155E0,9.481328011E0,-9.122186899E-1,2.411034822E0
1.093297355E0,9.493299484E0,-9.241901040E-1,2.418217659E0
1.095298721E0,9.483722687E0,-9.265843630E-1,2.420611858E0
1.097300087E0,9.486116409E0,-9.409499764E-1,2.446948767E0
1.099301420E0,9.488511086E0,-9.577099085E-1,2.458920240E0
1.101302786E0,9.488511086E0,-9.648927450E-1,2.466103077E0
1.103304119E0,9.502876282E0,-9.601042271E-1,2.499622822E0
1.105305452E0,9.495694160E0,-9.481328130E-1,2.494834423E0
1.107306818E0,9.471751213E0,-9.529213905E-1,2.511594296E0
1.109308151E0,9.466962814E0,-9.577099085E-1,2.540325642E0
1.111309484E0,9.474145889E0,-9.601042271E-1,2.537931204E0
1.113310850E0,9.464568138E0,-9.433442950E-1,2.525959969E0
1.115311950E0,9.447808266E0,-9.265843630E-1,2.497228622E0
1.117313283E0,9.452596664E0,-9.074301720E-1,2.470891714E0
1.119314883E0,9.454991341E0,-8.978530765E-1,2.420611858E0
1.121316516E0,9.450202942E0,-9.026415944E-1,2.391880512E0
1.123317849E0,9.433443069E0,-9.026415944E-1,2.363149166E0
1.125319215E0,9.416683197E0,-8.810931444E-1,2.353572130E0
1.127321015E0,9.380768776E0,-8.667274714E-1,2.336812258E0
1.129322348E0,9.383162498E0,-8.930644989E-1,2.286532402E0
1.131323714E0,9.378374100E0,-8.786988258E-1,2.276955366E0
1.133324814E0,9.378374100E0,-8.858816624E-1,2.264983892E0
1.135326147E0,9.356825829E0,-8.882759809E-1,2.264983892E0
1.137327513E0,9.330489159E0,-8.834874034E-1,2.284138203E0
1.139328846E0,9.318517685E0,-8.978530765E-1,2.312869549E0
1.141330179E0,9.299363136E0,-9.074301720E-1,2.336812258E0
1.143331512E0,9.275420189E0,-9.265843630E-1,2.384697676E0
1.145332845E0,9.261054993E0,-9.361614585E-1,2.406246185E0
1.147333445E0,9.246688843E0,-9.289786220E-1,2.446948767E0
1.149334778E0,9.237112045E0,-9.289786220E-1,2.466103077E0
1.151336111E0,9.220352173E0,-9.217957854E-1,2.468497276E0
1.153337477E0,9.225140572E0,-9.074301720E-1,2.446948767E0
1.155338810E0,9.244295120E0,-9.074301720E-1,2.427794695E0
1.157340376E0,9.261054993E0,-8.834874034E-1,2.408640385E0
1.159341742E0,9.253871918E0,-8.739103079E-1,2.363149166E0
1.161343075E0,9.256266594E0,-8.715160489E-1,2.363149166E0
1.163344408E0,9.265843391E0,-8.715160489E-1,2.339206457E0
1.165345774E0,9.275420189E0,-8.427847624E-1,2.300898075E0
1.167347107E0,9.280209541E0,-8.284190893E-1,2.279349566E0
1.169348440E0,9.320911407E0,-8.260248303E-1,2.267378330E0
1.171349740E0,9.325700760E0,-8.260248303E-1,2.255406857E0
1.173351240E0,9.335277557E0,-8.356019258E-1,2.226675510E0
1.175352806E0,9.344854355E0,-8.092648983E-1,2.197944164E0
1.177354539E0,9.361614227E0,-8.236305118E-1,2.202732801E0
1.179355872E0,9.373585701E0,-8.260248303E-1,2.169213057E0
1.181356905E0,9.373585701E0,-8.092648983E-1,2.174001455E0
1.183358271E0,9.390345573E0,-8.164477348E-1,2.188367128E0
1.185360071E0,9.395133972E0,-8.068706393E-1,2.207521439E0
1.187360937E0,9.385557175E0,-8.356019258E-1,2.243435383E0
1.189362303E0,9.390345573E0,-8.499675393E-1,2.250618219E0
1.191363636E0,9.390345573E0,-8.308133483E-1,2.284138203E0
1.193365202E0,9.392740250E0,-8.595446348E-1,2.315263748E0
1.195366568E0,9.395133972E0,-8.619389534E-1,2.336812258E0
1.197368301E0,9.373585701E0,-8.571503758E-1,2.379909277E0
1.199369634E0,9.380768776E0,-8.763045669E-1,2.391880512E0
1.201371000E0,9.387951851E0,-8.810931444E-1,2.413429022E0
1.203372333E0,9.390345573E0,-8.786988258E-1,2.439765930E0
1.205373666E0,9.383162498E0,-8.906702399E-1,2.427794695E0
1.207375032E0,9.371191978E0,-8.954587579E-1,2.442160368E0
1.209376365E0,9.359220505E0,-9.122186899E-1,2.449343204E0
1.211377698E0,9.332882881E0,-9.194015265E-1,2.463708878E0
1.213379031E0,9.318517685E0,-9.313728809E-1,2.475680113E0
1.215380364E0,9.284997940E0,-9.289786220E-1,2.466103077E0
1.217381697E0,9.280209541E0,-9.385557175E-1,2.466103077E0
1.219383030E0,9.275420189E0,-9.385557175E-1,2.456526041E0
1.221384130E0,9.263449669E0,-9.289786220E-1,2.461314440E0
1.223385596E0,9.287391663E0,-9.553156495E-1,2.466103077E0
1.225386929E0,9.296969414E0,-9.529213905E-1,2.434977531E0
1.227388262E0,9.294574738E0,-9.409499764E-1,2.442160368E0
1.229389628E0,9.292180061E0,-9.385557175E-1,2.408640385E0
1.231391028E0,9.287391663E0,-9.601042271E-1,2.403851986E0
1.233392194E0,9.301757812E0,-9.505270720E-1,2.403851986E0
1.235393560E0,9.313729286E0,-9.577099085E-1,2.391880512E0
1.237394526E0,9.332882881E0,-9.624984860E-1,2.396669149E0
1.239395859E0,9.340065956E0,-9.553156495E-1,2.408640385E0
1.241397225E0,9.335277557E0,-9.505270720E-1,2.403851986E0
1.243398558E0,9.318517685E0,-9.481328130E-1,2.399063349E0
1.245399424E0,9.311334610E0,-9.457385540E-1,2.399063349E0
1.247400790E0,9.308940887E0,-9.505270720E-1,2.389486313E0
1.249402123E0,9.287391663E0,-9.385557175E-1,2.377514839E0
1.251403456E0,9.273026466E0,-9.337671995E-1,2.351177931E0
1.253404822E0,9.256266594E0,-9.122186899E-1,2.341600657E0
1.255406155E0,9.261054993E0,-9.074301720E-1,2.327235222E0
1.257407655E0,9.268238068E0,-9.217957854E-1,2.286532402E0
1.259409021E0,9.251478195E0,-9.074301720E-1,2.276955366E0
1.261410354E0,9.261054993E0,-9.098244309E-1,2.238646984E0
1.263411687E0,9.270631790E0,-9.026415944E-1,2.217098475E0
1.265413053E0,9.289786339E0,-9.050358534E-1,2.162030220E0
1.267414386E0,9.287391663E0,-9.122186899E-1,2.147664547E0
1.269415719E0,9.270631790E0,-8.882759809E-1,2.123721838E0
1.271417085E0,9.275420189E0,-9.026415944E-1,2.118933201E0
1.273418418E0,9.282603264E0,-8.930644989E-1,2.104567528E0
1.275419751E0,9.299363136E0,-9.098244309E-1,2.097384691E0
1.277421117E0,9.301757812E0,-9.074301720E-1,2.092596292E0
1.279422450E0,9.296969414E0,-9.361614585E-1,2.080624819E0
1.281424016E0,9.306546211E0,-9.481328130E-1,2.083019018E0
1.283425249E0,9.304151535E0,-9.529213905E-1,2.083019018E0
1.285426582E0,9.306546211E0,-9.337671995E-1,2.094990492E0
1.287427915E0,9.311334610E0,-9.385557175E-1,2.099778891E0
1.289429248E0,9.337671280E0,-9.194015265E-1,2.099778891E0
1.291430581E0,9.352037430E0,-9.098244309E-1,2.109356165E0
1.293431914E0,9.354432106E0,-9.361614585E-1,2.090201855E0
1.295433247E0,9.380768776E0,-9.241901040E-1,2.090201855E0
1.297434580E0,9.375980377E0,-9.217957854E-1,2.087807655E0
1.299435946E0,9.380768776E0,-9.146129489E-1,2.094990492E0
1.301437279E0,9.378374100E0,-9.074301720E-1,2.099778891E0
1.303438612E0,9.375980377E0,-9.002473354E-1,2.104567528E0
1.305439978E0,9.373585701E0,-8.978530765E-1,2.109356165E0
1.307441311E0,9.361614227E0,-8.834874034E-1,2.140481710E0
1.309443377E0,9.361614227E0,-8.930644989E-1,2.169213057E0
1.311444743E0,9.366402626E0,-8.954587579E-1,2.169213057E0
1.313446076E0,9.361614227E0,-8.763045669E-1,2.178790092E0
1.315447409E0,9.373585701E0,-8.691217303E-1,2.176395893E0
1.317448209E0,9.354432106E0,-8.810931444E-1,2.181184292E0
1.319449342E0,9.337671280E0,-8.739103079E-1,2.197944164E0
1.321450675E0,9.340065956E0,-8.739103079E-1,2.217098475E0
1.323452041E0,9.359220505E0,-8.810931444E-1,2.190761566E0
1.325453374E0,9.368797302E0,-8.906702399E-1,2.185972929E0
1.327454707E0,9.387951851E0,-9.074301720E-1,2.183578730E0
1.329458940E0,9.387951851E0,-8.978530765E-1,2.157241583E0
1.331460273E0,9.378374100E0,-9.289786220E-1,2.150058746E0
1.333461606E0,9.380768776E0,-9.265843630E-1,2.159635782E0
1.335462972E0,9.383162498E0,-9.481328130E-1,2.133298874E0
1.337464305E0,9.390345573E0,-9.457385540E-1,2.109356165E0
1.339465638E0,9.375980377E0,-9.409499764E-1,2.090201855E0
1.341467004E0,9.366402626E0,-9.553156495E-1,2.073441982E0
1.343468337E0,9.368797302E0,-9.648927450E-1,2.051893473E0
1.345469670E0,9.366402626E0,-9.840469360E-1,1.992036581E0
1.347471036E0,9.373585701E0,-9.816526771E-1,1.934574008E0
1.349472369E0,9.356825829E0,-9.792584181E-1,1.927391171E0
1.351473702E0,9.361614227E0,-9.840469360E-1,1.889082789E0
1.353475068E0,9.337671280E0,-9.792584181E-1,1.834014535E0
1.355476401E0,9.323306084E0,-9.888355136E-1,1.812466025E0
1.357477734E0,9.316123009E0,-9.960182905E-1,1.783734679E0
1.359479067E0,9.294574738E0,-9.984126091E-1,1.747820616E0
1.361480400E0,9.280209541E0,-9.888355136E-1,1.731060743E0
1.363481733E0,9.253871918E0,-9.960182905E-1,1.728666425E0
1.365483066E0,9.222746849E0,-9.912297726E-1,1.699935079E0
1.367484399E0,9.217958450E0,-1.015172482E0,1.692752242E0
1.369485032E0,9.203592300E0,-1.022355318E0,1.697540879E0
1.371486365E0,9.201197624E0,-1.034326673E0,1.692752242E0
1.373487698E0,9.210775375E0,-1.036720991E0,1.704723716E0
1.375489064E0,9.220352173E0,-1.043903828E0,1.711906433E0
1.377490397E0,9.222746849E0,-1.046298146E0,1.711906433E0
1.379491797E0,9.220352173E0,-1.043903828E0,1.723877907E0
1.381493163E0,9.258660316E0,-1.043903828E0,1.743032098E0
1.383494496E0,9.273026466E0,-1.043903828E0,1.762186289E0
1.385495829E0,9.299363136E0,-1.048692346E0,1.750214934E0
1.387497195E0,9.340065956E0,-1.055875182E0,1.781340480E0
1.391496994E0,9.344854355E0,-1.063058019E0,1.781340480E0
1.393498360E0,9.356825829E0,-1.070240855E0,1.800494671E0
1.395499693E0,9.383162498E0,-1.065452337E0,1.788523316E0
1.397501759E0,9.385557175E0,-1.067846537E0,1.769369125E0
1.399503125E0,9.383162498E0,-1.063058019E0,1.738243461E0
1.401504458E0,9.397528648E0,-1.058269501E0,1.726272106E0
1.403505791E0,9.375980377E0,-1.058269501E0,1.707117915E0
1.405506891E0,9.368797302E0,-1.072635174E0,1.697540879E0
1.407508224E0,9.344854355E0,-1.060663700E0,1.687963724E0
1.409509557E0,9.344854355E0,-1.065452337E0,1.695146561E0
1.411510923E0,9.323306084E0,-1.067846537E0,1.707117915E0
1.413512256E0,9.318517685E0,-1.041509509E0,1.740637779E0
1.415513589E0,9.299363136E0,-1.019961119E0,1.745426297E0
1.417514955E0,9.275420189E0,-1.022355318E0,1.740637779E0
1.419516288E0,9.277814865E0,-1.012778282E0,1.755003452E0
1.421517621E0,9.263449669E0,-1.007989645E0,1.755003452E0
1.423524221E0,9.277814865E0,-9.840469360E-1,1.743032098E0
1.425525554E0,9.261054993E0,-9.744698405E-1,1.755003452E0
1.427526887E0,9.268238068E0,-9.696813226E-1,1.764580488E0
1.429528220E0,9.287391663E0,-9.672870040E-1,1.766974807E0
1.431529553E0,9.287391663E0,-9.481328130E-1,1.776551962E0
1.433530886E0,9.277814865E0,-9.505270720E-1,1.774157643E0
1.435532219E0,9.306546211E0,-9.337671995E-1,1.771763325E0
1.437533552E0,9.328094482E0,-9.313728809E-1,1.757397652E0
1.439535052E0,9.320911407E0,-9.313728809E-1,1.776551962E0
1.441536385E0,9.330489159E0,-9.146129489E-1,1.743032098E0
1.443537718E0,9.354432106E0,-9.002473354E-1,1.726272106E0
1.445539084E0,9.347249031E0,-9.170072675E-1,1.687963724E0
1.447540417E0,9.359220505E0,-9.026415944E-1,1.692752242E0
1.449541750E0,9.378374100E0,-8.930644989E-1,1.666415215E0
1.451543116E0,9.395133972E0,-8.882759809E-1,1.666415215E0
1.453544449E0,9.433443069E0,-8.763045669E-1,1.649655342E0
1.455545782E0,9.457385063E0,-8.715160489E-1,1.640078187E0
1.457546415E0,9.505270958E0,-8.595446348E-1,1.647261024E0
1.459547748E0,9.543579102E0,-8.475732803E-1,1.654443860E0
1.461549014E0,9.567522049E0,-8.427847624E-1,1.647261024E0
1.463550380E0,9.617801666E0,-8.260248303E-1,1.664021015E0
1.465551980E0,9.639349937E0,-8.068706393E-1,1.664021015E0
1.467553313E0,9.665687561E0,-7.853221297E-1,1.668809533E0
1.469554679E0,9.711178780E0,-7.805336118E-1,1.628106833E0
1.471556012E0,9.723150253E0,-7.709565163E-1,1.632895470E0
1.473557345E0,9.730332375E0,-7.518022656E-1,1.616135478E0
1.475558711E0,9.763853073E0,-7.398309112E-1,1.606558442E0
1.477560044E0,9.759063721E0,-7.182824612E-1,1.608952641E0
1.479561377E0,9.804554939E0,-6.919454336E-1,1.585009933E0
1.481562743E0,9.821314812E0,-6.632141471E-1,1.544307232E0
1.485560176E0,9.857229233E0,-6.392713785E-1,1.455719113E0
1.487561542E0,9.881172180E0,-6.009629965E-1,1.386285067E0
1.489562875E0,9.881172180E0,-5.650488734E-1,1.340793848E0
1.491564208E0,9.907508850E0,-4.740664065E-1,1.151646137E0
1.493565574E0,9.962577820E0,-3.998439014E-1,1.003201127E0
1.495566907E0,1.005116558E1,-3.375927508E-1,8.930644989E-1
1.497568240E0,9.938634872E0,-3.567469418E-1,1.048692346E0
1.499569873E0,9.869200706E0,-3.830839694E-1,1.161223292E0
1.501571206E0,9.811738014E0,-4.668835998E-1,1.319245458E0
1.503572539E0,9.756669998E0,-5.506832004E-1,1.369525194E0
1.505575005E0,9.754275322E0,-5.794144869E-1,1.407833576E0
1.507576338E0,9.747093201E0,-6.488484740E-1,1.381496549E0
1.509577704E0,9.696812630E0,-7.230709791E-1,1.419804931E0
1.511579237E0,9.658504486E0,-7.565908432E-1,1.419804931E0
1.513582337E0,9.596253395E0,-7.948992252E-1,1.388679385E0
1.515583703E0,9.593858719E0,-8.236305118E-1,1.324033976E0
1.517585036E0,9.648927689E0,-8.044763207E-1,1.170800328E0
1.519586369E0,9.624984741E0,-7.589851022E-1,9.960182905E-1
1.521587802E0,9.641744614E0,-7.302538157E-1,8.834874034E-1
1.523589135E0,9.689630508E0,-6.512427330E-1,6.943396926E-1
1.525590468E0,9.682447433E0,-6.009629965E-1,5.985686779E-1
1.527591834E0,9.660899162E0,-6.129343510E-1,6.249057055E-1
1.529593167E0,9.567522049E0,-6.344828010E-1,6.919454336E-1
1.531594500E0,9.541185379E0,-6.392713785E-1,7.470137477E-1
1.533595866E0,9.565128326E0,-6.656084061E-1,7.877163887E-1
1.535597199E0,9.629773140E0,-6.775797606E-1,7.757450342E-1
1.537598532E0,9.605830193E0,-6.919454336E-1,7.805336118E-1
1.539599898E0,9.591464996E0,-6.847625971E-1,7.829278708E-1
1.541601231E0,9.589070320E0,-6.775797606E-1,7.278595567E-1
1.543603297E0,9.593858719E0,-6.584255695E-1,6.775797606E-1
1.545604663E0,9.613013268E0,-6.440598965E-1,6.273000240E-1
1.547605996E0,9.569916725E0,-6.273000240E-1,5.530774593E-1
1.549607329E0,9.555550575E0,-6.392713785E-1,5.387118459E-1
1.551608695E0,9.435836792E0,-6.440598965E-1,5.435003638E-1
1.553610028E0,9.390345573E0,-6.751855016E-1,5.291347504E-1
1.555611361E0,9.414288521E0,-6.727912426E-1,5.147690773E-1
1.557613461E0,9.419076920E0,-6.727912426E-1,4.644893110E-1
1.559614494E0,9.445414543E0,-6.344828010E-1,3.878725171E-1
1.561615827E0,9.440625191E0,-6.201171875E-1,3.495641351E-1
1.563617193E0,9.433443069E0,-5.794144869E-1,3.232271075E-1
1.565617393E0,9.431048393E0,-5.482889414E-1,2.968900800E-1
1.567618726E0,9.392740250E0,-5.027977228E-1,2.849186957E-1
1.569622226E0,9.352037430E0,-4.429408312E-1,2.944957912E-1
1.571623359E0,9.349642754E0,-4.357580245E-1,3.064671755E-1
1.575624258E0,9.299363136E0,-3.878725171E-1,2.921015322E-1
1.577625591E0,9.296969414E0,-3.543526828E-1,2.657645047E-1
1.579626957E0,9.280209541E0,-3.423812985E-1,2.130904645E-1
1.581628290E0,9.210775375E0,-3.040728867E-1,1.915419847E-1
1.583629623E0,9.210775375E0,-2.873129845E-1,2.011190802E-1
1.585630989E0,9.170072556E0,-2.968900800E-1,1.843591630E-1
1.587632322E0,9.174860954E0,-3.064671755E-1,1.771763414E-1
1.589633655E0,9.165284157E0,-2.921015322E-1,1.532335877E-1
1.591635021E0,9.110215187E0,-2.657645047E-1,1.245022863E-1
1.593636354E0,9.086273193E0,-2.729473412E-1,9.098244458E-2
1.595637687E0,9.074301720E0,-2.777358890E-1,9.577099234E-3
1.597639053E0,9.038387299E0,-2.777358890E-1,-4.788549617E-2
1.599640386E0,9.033598900E0,-2.849186957E-1,-7.422251999E-2
1.601641719E0,8.976136208E0,-2.921015322E-1,-1.556278616E-1
1.603642352E0,8.909096718E0,-3.040728867E-1,-2.226675600E-1
1.605643685E0,8.894730568E0,-2.992843390E-1,-2.490045726E-1
1.607645018E0,8.856422424E0,-3.112557232E-1,-2.921015322E-1
1.609646384E0,8.808537483E0,-3.184385598E-1,-3.471698463E-1
1.611647717E0,8.815719604E0,-3.136500120E-1,-3.711125851E-1
1.613648817E0,8.813325882E0,-2.849186957E-1,-4.381522834E-1
1.615650183E0,8.808537483E0,-2.944957912E-1,-4.692778587E-1
1.617650783E0,8.767834663E0,-2.801301479E-1,-5.458946824E-1
1.619652116E0,8.767834663E0,-2.992843390E-1,-6.320885420E-1
1.621658016E0,8.775016785E0,-2.849186957E-1,-6.536370516E-1
1.623659549E0,8.753468513E0,-3.016786277E-1,-6.991282701E-1
1.625660882E0,8.724737167E0,-3.136500120E-1,-7.494080067E-1
1.627662982E0,8.724737167E0,-3.112557232E-1,-7.709565163E-1
1.631663481E0,8.676852226E0,-3.184385598E-1,-9.026415944E-1
1.633664847E0,8.657697678E0,-3.184385598E-1,-9.601042271E-1
1.635666747E0,8.655303001E0,-3.136500120E-1,-1.043903828E0
1.637668080E0,8.691217422E0,-2.992843390E-1,-1.103760719E0
1.639669413E0,8.715160370E0,-2.921015322E-1,-1.261782765E0
1.641670746E0,8.715160370E0,-2.849186957E-1,-1.283331275E0
1.643672079E0,8.717555046E0,-2.825244367E-1,-1.326428294E0
1.645673412E0,8.712765694E0,-2.609759569E-1,-1.371919513E0
1.647674745E0,8.734314919E0,-2.442160249E-1,-1.422199249E0
1.649676111E0,8.743891716E0,-2.442160249E-1,-1.443747759E0
1.651677444E0,8.796566010E0,-2.178790122E-1,-1.501210332E0
1.653678544E0,8.873182297E0,-2.154847383E-1,-1.529941559E0
1.655679910E0,8.889942169E0,-2.178790122E-1,-1.549095750E0
1.657681243E0,8.954587936E0,-2.130904645E-1,-1.594586968E0
1.659682576E0,9.019232750E0,-2.274561077E-1,-1.611346960E0
1.661683942E0,9.045570374E0,-2.226675600E-1,-1.620923996E0
1.663685275E0,9.129369736E0,-2.083019018E-1,-1.640078187E0
1.665686608E0,9.148524284E0,-2.083019018E-1,-1.656838179E0
1.667687974E0,9.203592300E0,-2.274561077E-1,-1.699935079E0
1.669689307E0,9.244295120E0,-2.226675600E-1,-1.757397652E0
1.671690640E0,9.265843391E0,-2.154847383E-1,-1.788523316E0
1.673692240E0,9.294574738E0,-2.178790122E-1,-1.850774407E0
1.675693573E0,9.323306084E0,-2.083019018E-1,-1.913025618E0
1.677694773E0,9.328094482E0,-2.106961906E-1,-1.948939681E0
1.679696139E0,9.349642754E0,-1.867534369E-1,-2.020767927E0
1.683694072E0,9.342460632E0,-1.556278616E-1,-2.104567528E0
1.685695438E0,9.368797302E0,-1.436564922E-1,-2.178790092E0
1.687696038E0,9.378374100E0,-1.292908341E-1,-2.224281311E0
1.689697371E0,9.390345573E0,-1.388679445E-1,-2.262589693E0
1.691698737E0,9.404711723E0,-1.292908341E-1,-2.293715239E0
1.693700803E0,9.426259995E0,-1.221080124E-1,-2.324840784E0
1.695701569E0,9.433443069E0,-9.816526622E-2,-2.348783493E0
1.697703435E0,9.435836792E0,-1.197137386E-1,-2.365543604E0
1.699704768E0,9.433443069E0,-1.101366431E-1,-2.413429022E0
1.701706234E0,9.433443069E0,-1.125309169E-1,-2.434977531E0
1.703707600E0,9.423865318E0,-1.221080124E-1,-2.475680113E0
1.705708800E0,9.414288521E0,-1.197137386E-1,-2.513988495E0
1.707710133E0,9.428654671E0,-1.316851079E-1,-2.552296877E0
1.709711466E0,9.447808266E0,-1.197137386E-1,-2.573845387E0
1.711712799E0,9.457385063E0,-1.101366431E-1,-2.626519442E0
1.713714365E0,9.486116409E0,-7.422251999E-2,-2.676799297E0
1.715715431E0,9.512454033E0,-6.943397224E-2,-2.724684715E0
1.717716764E0,9.553156853E0,-5.027977005E-2,-2.770175934E0
1.719718130E0,9.567522049E0,-3.830839694E-2,-2.803695917E0
1.721720196E0,9.584281921E0,-5.746259540E-2,-2.820455790E0
1.723721529E0,9.620196342E0,-3.830839694E-2,-2.873129845E0
1.725722895E0,9.677659035E0,-7.661679387E-2,-2.909043789E0
1.727724228E0,9.703995705E0,-5.985686928E-2,-2.937775135E0
1.729725561E0,9.775823593E0,-6.703969836E-2,-2.988054991E0
1.731726927E0,9.859623909E0,-5.746259540E-2,-3.045517445E0
1.733728260E0,9.885960579E0,-5.746259540E-2,-3.067065954E0
1.735729593E0,9.960183144E0,-5.506832153E-2,-3.117345810E0
1.737731093E0,1.000327969E1,-5.506832153E-2,-3.155654192E0
1.739732426E0,1.006074238E1,-3.830839694E-2,-3.237059593E0
1.741733759E0,1.014214802E1,-1.197137404E-2,-3.306493521E0
1.743735059E0,1.014933109E1,-9.577099234E-3,-3.359167576E0
1.745736392E0,1.022115898E1,-9.577099234E-3,-3.481275558E0
1.747737725E0,1.030016994E1,2.154847234E-2,-3.593806505E0
1.749739091E0,1.034566116E1,2.154847234E-2,-3.644086361E0
1.751740424E0,1.040073013E1,2.154847234E-2,-3.720703125E0
1.753741024E0,1.044861507E1,4.070267081E-2,-3.845205307E0
1.755743124E0,1.047734642E1,4.788549617E-2,-3.905062199E0
1.757743957E0,1.052762604E1,5.985686928E-2,-4.022381783E0
1.759745290E0,1.055875206E1,7.901106775E-2,-4.132518291E0
1.761746256E0,1.055875206E1,7.182824612E-2,-4.187586784E0
1.763747589E0,1.057311726E1,9.337671846E-2,-4.302511692E0
1.765749055E0,1.058508873E1,9.098244458E-2,-4.352791786E0
1.767750421E0,1.060903168E1,1.245022863E-1,-4.388705730E0
1.769751754E0,1.063057995E1,1.340793967E-1,-4.532361984E0
1.771753054E0,1.063536835E1,1.460507661E-1,-4.613767624E0
1.773754420E0,1.067367744E1,1.771763414E-1,-4.757423878E0
1.775756020E0,1.072395706E1,1.652049571E-1,-4.843617916E0
1.777757353E0,1.076226521E1,1.652049571E-1,-4.874743462E0
1.779758686E0,1.081972790E1,1.532335877E-1,-4.936994553E0
1.781759286E0,1.084845924E1,1.412622184E-1,-4.963331699E0
1.783760619E0,1.086043072E1,1.388679445E-1,-4.994457245E0
1.785761952E0,1.092507553E1,1.460507661E-1,-5.059102535E0
1.787763285E0,1.094901848E1,1.340793967E-1,-5.016005516E0
1.789764651E0,1.103760719E1,1.221080124E-1,-5.066285610E0
1.791765984E0,1.111422348E1,1.460507661E-1,-5.214730740E0
1.793767317E0,1.114295483E1,1.388679445E-1,-5.308107376E0
1.795768683E0,1.123872566E1,1.460507661E-1,-5.420638084E0
1.797770083E0,1.132013130E1,1.125309169E-1,-5.569083214E0
1.799771416E0,1.140393066E1,1.053480953E-1,-5.628940105E0
1.801772782E0,1.144942188E1,1.029538140E-1,-5.727105141E0
1.803774915E0,1.150209618E1,8.379961550E-2,-5.712739468E0
1.805776248E0,1.152364445E1,9.098244458E-2,-5.731894016E0
1.807777614E0,1.154040432E1,1.221080124E-1,-5.810904980E0
1.809779080E0,1.153561592E1,1.532335877E-1,-5.877944469E0
1.811780413E0,1.156913567E1,1.652049571E-1,-6.083852291E0
1.813781779E0,1.161462688E1,1.245022863E-1,-6.287365437E0
1.815782379E0,1.163856983E1,1.292908341E-1,-6.361588001E0
1.817783445E0,1.163856983E1,1.388679445E-1,-6.447782040E0
1.819784811E0,1.164096451E1,1.484450400E-1,-6.469330311E0
1.821786411E0,1.164575291E1,1.268965602E-1,-6.433416367E0
1.823787744E0,1.169363785E1,1.149251908E-1,-6.440599442E0
1.825789110E0,1.172715759E1,1.460507661E-1,-6.646506786E0
1.827790443E0,1.177264881E1,1.508393139E-1,-6.723123550E0
1.829791776E0,1.183968925E1,1.819648892E-1,-6.845231533E0
1.831793176E0,1.200728798E1,1.867534369E-1,-6.921848297E0
1.833795242E0,1.209348202E1,1.580221355E-1,-7.005648136E0
1.835796575E0,1.219404125E1,4.549122229E-2,-6.974522591E0
1.837797941E0,1.222516727E1,2.873129770E-2,-6.852414608E0
1.839799041E0,1.235924625E1,1.197137404E-2,-6.876357079E0
1.841800374E0,1.241910362E1,3.830839694E-2,-7.031985283E0
1.843801874E0,1.243346882E1,1.197137404E-2,-7.077476501E0
1.845803207E0,1.242389202E1,4.788549617E-3,-7.046350956E0
1.847804540E0,1.246220016E1,-2.873129770E-2,-7.003253937E0
1.849805873E0,1.250769138E1,-8.619388938E-2,-6.931425571E0
1.851807206E0,1.252923965E1,-1.221080124E-1,-6.957762718E0
1.853808539E0,1.254599953E1,-1.125309169E-1,-7.120573044E0
1.855809872E0,1.257233715E1,-1.197137386E-1,-7.161275864E0
1.857811538E0,1.257712555E1,-1.340793967E-1,-7.144515991E0
1.859812871E0,1.258191395E1,-1.652049571E-1,-7.120573044E0
1.861814204E0,1.260346222E1,-2.394274771E-1,-7.051139355E0
1.863814804E0,1.265853119E1,-2.442160249E-1,-6.936213970E0
1.865816170E0,1.267050266E1,-2.633702159E-1,-6.845231533E0
1.867817503E0,1.266331959E1,-2.418217510E-1,-6.823683262E0
1.869818703E0,1.262261677E1,-1.915419847E-1,-6.919454098E0
1.871820069E0,1.259388542E1,-1.987248063E-1,-6.962551117E0
1.873821402E0,1.251008606E1,-2.130904645E-1,-6.967339516E0
1.875822735E0,1.238797760E1,-2.106961906E-1,-6.964945316E0
1.877824368E0,1.231614971E1,-2.059076279E-1,-6.924242973E0
1.879825701E0,1.212221336E1,-1.675992310E-1,-6.871568680E0
1.881826801E0,1.195461369E1,-1.149251908E-1,-6.866780281E0
1.883828167E0,1.186363125E1,-9.337671846E-2,-6.850020409E0
1.885829500E0,1.173194695E1,-4.549122229E-2,-6.806923389E0
1.887830833E0,1.166490650E1,-4.309694469E-2,-6.809317589E0
1.889832199E0,1.155716419E1,-4.070267081E-2,-6.603409767E0
1.891833532E0,1.143266201E1,4.788549617E-2,-6.763826370E0
1.893834132E0,1.138717079E1,9.816526622E-2,-6.845231533E0
1.895835498E0,1.124351406E1,1.604164094E-1,-7.003253937E0
1.897836831E0,1.111422348E1,1.939362586E-1,-6.984099388E0
1.899838297E0,1.106154919E1,2.059076279E-1,-7.008042336E0
1.901839663E0,1.092268181E1,2.585816681E-1,-7.012830734E0
1.903840863E0,1.079817963E1,2.921015322E-1,-7.039167881E0
1.905842196E0,1.073114014E1,2.801301479E-1,-7.029590607E0
1.907843562E0,1.058748341E1,3.088614643E-1,-7.031985283E0
1.909844895E0,1.052283764E1,3.112557232E-1,-7.053533554E0
1.911846228E0,1.041749001E1,3.399870098E-1,-7.115784645E0
1.913847594E0,1.031692982E1,3.519583941E-1,-7.199584484E0
1.915848927E0,1.028101635E1,3.543526828E-1,-7.218738556E0
1.917850593E0,1.019482231E1,3.088614643E-1,-7.194795609E0
1.919851959E0,1.013017654E1,3.040728867E-1,-7.125361919E0
1.921853292E0,1.007510853E1,2.944957912E-1,-7.096630573E0
1.923854625E0,9.979337692E0,2.873129845E-1,-7.106207848E0
1.925855958E0,9.917086601E0,2.633702159E-1,-7.149304390E0
1.927857291E0,9.881172180E0,2.657645047E-1,-7.187613010E0
1.929858857E0,9.806949615E0,2.490045726E-1,-7.259441376E0
1.931860190E0,9.773429871E0,2.418217510E-1,-7.278595448E0
1.933861523E0,9.694418907E0,2.298503816E-1,-7.288172722E0
1.935862889E0,9.593858719E0,2.250618339E-1,-7.297749519E0
1.937864222E0,9.560338974E0,2.394274771E-1,-7.314509392E0
1.939865555E0,9.493299484E0,2.322446555E-1,-7.355212212E0
1.941867155E0,9.423865318E0,2.226675600E-1,-7.350423813E0
1.943868488E0,9.380768776E0,2.226675600E-1,-7.345634937E0
1.945869821E0,9.328094482E0,2.250618339E-1,-7.338452339E0
1.947871187E0,9.296969414E0,2.346389294E-1,-7.343240738E0
1.949872520E0,9.292180061E0,2.466102988E-1,-7.357606411E0
1.951873853E0,9.275420189E0,2.657645047E-1,-7.367183685E0
1.953875219E0,9.232323647E0,2.897072434E-1,-7.374366283E0
1.955876552E0,9.229928970E0,2.921015322E-1,-7.398309231E0
1.957877885E0,9.198803902E0,3.208328187E-1,-7.429434776E0
1.959879351E0,9.213169098E0,3.232271075E-1,-7.448588848E0
1.961880684E0,9.189227104E0,3.711125851E-1,-7.458166122E0
1.963882017E0,9.196409225E0,3.998439014E-1,-7.415069103E0
1.965883383E0,9.217958450E0,4.046324492E-1,-7.393520832E0
1.967884716E0,9.213169098E0,4.022381604E-1,-7.326480865E0
1.969886049E0,9.217958450E0,4.022381604E-1,-7.297749519E0
1.971887415E0,9.203592300E0,4.046324492E-1,-7.283383846E0
1.973888748E0,9.191620827E0,3.735068738E-1,-7.273807049E0
1.975890081E0,9.179649353E0,3.615354896E-1,-7.247469902E0
1.977890714E0,9.167677879E0,3.543526828E-1,-7.245075703E0
1.979892047E0,9.141341209E0,3.639297783E-1,-7.257047176E0
1.981893380E0,9.138946533E0,3.399870098E-1,-7.257047176E0
1.983894746E0,9.134158134E0,3.495641351E-1,-7.252258301E0
1.985896079E0,9.150918007E0,3.543526828E-1,-7.228315830E0
1.987897412E0,9.143735886E0,3.423812985E-1,-7.211555958E0
1.989898545E0,9.143735886E0,3.567469418E-1,-7.158881664E0
1.991899878E0,9.129369736E0,3.639297783E-1,-7.134938717E0
1.993901211E0,9.141341209E0,3.830839694E-1,-7.125361919E0
1.995902544E0,9.150918007E0,3.615354896E-1,-7.120573044E0
1.997903877E0,9.150918007E0,3.782954216E-1,-7.122967720E0
1.999905210E0,9.158101082E0,3.806896806E-1,-7.139727592E0
2.001906543E0,9.138946533E0,3.806896806E-1,-7.113390446E0
2.003907876E0,9.146129608E0,4.022381604E-1,-7.144515991E0
2.005909242E0,9.158101082E0,4.070267081E-1,-7.125361919E0
2.007910575E0,9.158101082E0,3.854782581E-1,-7.122967720E0
2.009911908E0,9.153312683E0,3.782954216E-1,-7.113390446E0
2.011913274E0,9.189227104E0,4.070267081E-1,-7.055927753E0
2.013914607E0,9.232323647E0,3.806896806E-1,-7.034379482E0
2.015915940E0,9.246688843E0,3.759011328E-1,-7.003253937E0
2.017917306E0,9.306546211E0,3.687183261E-1,-6.964945316E0
2.019918639E0,9.349642754E0,3.663240373E-1,-6.909877300E0
2.021919972E0,9.378374100E0,3.615354896E-1,-6.871568680E0
2.023921338E0,9.464568138E0,3.399870098E-1,-6.802134514E0
2.025922671E0,9.534002304E0,2.944957912E-1,-6.754249096E0
2.027924004E0,9.560338974E0,2.944957912E-1,-6.713546753E0
2.029925370E0,9.656110764E0,2.681587934E-1,-6.656084061E0
2.031926703E0,9.687235832E0,2.394274771E-1,-6.651295185E0
2.033928036E0,9.725543976E0,2.466102988E-1,-6.615381241E0
2.035929402E0,9.749486923E0,2.154847383E-1,-6.562707424E0
2.037930735E0,9.773429871E0,2.059076279E-1,-6.565101624E0
2.039932068E0,9.830892563E0,1.891477108E-1,-6.514821529E0
2.041933434E0,9.869200706E0,1.532335877E-1,-6.486090660E0
2.043934767E0,9.864412308E0,1.436564922E-1,-6.478907585E0
2.045936100E0,9.902720451E0,1.412622184E-1,-6.474119186E0
2.047937466E0,9.941028595E0,1.412622184E-1,-6.454965115E0
2.049938799E0,9.953000069E0,1.197137386E-1,-6.440599442E0
2.051940132E0,9.984126091E0,1.221080124E-1,-6.428627968E0
2.053941532E0,9.993702888E0,1.316851079E-1,-6.416656494E0
2.055942865E0,1.000327969E1,1.340793967E-1,-6.407079220E0
2.057944231E0,9.993702888E0,1.173194647E-1,-6.368771076E0
2.059945597E0,1.000088596E1,9.337671846E-2,-6.354405403E0
2.061946930E0,9.986519814E0,6.943397224E-2,-6.332856655E0
2.063948263E0,9.936240196E0,6.703969836E-2,-6.337645531E0
2.065949596E0,9.914691925E0,6.464541703E-2,-6.330462456E0
2.067950929E0,9.857229233E0,5.267404765E-2,-6.359193802E0
2.069952262E0,9.814132690E0,5.027977005E-2,-6.380742550E0
2.071953595E0,9.814132690E0,6.703969836E-2,-6.390319347E0
2.073954928E0,9.759063721E0,7.182824612E-2,-6.414262295E0
2.075956294E0,9.730332375E0,8.140534163E-2,-6.440599442E0
2.077957627E0,9.711178780E0,7.661679387E-2,-6.438204765E0
2.079958960E0,9.694418907E0,1.125309169E-1,-6.419050694E0
2.081960326E0,9.653716087E0,1.292908341E-1,-6.402290821E0
2.083961659E0,9.617801666E0,1.675992310E-1,-6.363982677E0
2.085962992E0,9.574705124E0,1.891477108E-1,-6.323279858E0
2.087964358E0,9.562733650E0,2.059076279E-1,-6.294548512E0
2.089965691E0,9.481328011E0,2.298503816E-1,-6.253845692E0
2.091967024E0,9.450202942E0,2.705530524E-1,-6.203566074E0
2.093968390E0,9.431048393E0,2.825244367E-1,-6.179623127E0
2.095969723E0,9.385557175E0,3.064671755E-1,-6.158074856E0
2.097971056E0,9.340065956E0,3.304099143E-1,-6.141314983E0
2.099972422E0,9.347249031E0,3.304099143E-1,-6.129343510E0
2.101974488E0,9.335277557E0,3.160442710E-1,-6.107795238E0
2.103975821E0,9.313729286E0,3.160442710E-1,-6.100612164E0
2.105977187E0,9.306546211E0,3.375927508E-1,-6.100612164E0
2.107978520E0,9.280209541E0,3.471698463E-1,-6.105400562E0
2.109979853E0,9.258660316E0,3.591412306E-1,-6.081458092E0
2.111981219E0,9.227535248E0,3.543526828E-1,-6.057515144E0
2.113982519E0,9.222746849E0,3.519583941E-1,-6.059909344E0
2.115983852E0,9.210775375E0,3.447755575E-1,-6.064698219E0
2.117985185E0,9.186832428E0,3.399870098E-1,-6.016812801E0
2.119986518E0,9.186832428E0,3.447755575E-1,-6.000052452E0
2.121987851E0,9.182044029E0,3.328042030E-1,-5.985687256E0
2.123994851E0,9.170072556E0,3.256213665E-1,-5.997658253E0
2.125996217E0,9.153312683E0,2.897072434E-1,-5.985687256E0
2.127997550E0,9.126976013E0,2.873129845E-1,-5.961744308E0
2.129998916E0,9.095849991E0,2.609759569E-1,-5.944984436E0
2.132002549E0,9.069513321E0,2.681587934E-1,-5.942590237E0
2.134003882E0,9.059935570E0,2.609759569E-1,-5.944984436E0
2.136005215E0,9.040781975E0,2.705530524E-1,-5.918647289E0
2.138006548E0,9.045570374E0,2.537931204E-1,-5.894704342E0
2.140007881E0,9.014444351E0,2.322446555E-1,-5.880339146E0
2.142009214E0,8.973741531E0,2.442160249E-1,-5.882733345E0
2.144010547E0,8.947404861E0,2.442160249E-1,-5.865973473E0
2.146011913E0,8.921068192E0,2.705530524E-1,-5.854001999E0
2.148013246E0,8.913885117E0,2.729473412E-1,-5.837242126E0
2.150014579E0,8.911490440E0,2.561874092E-1,-5.832453251E0
2.152016579E0,8.889942169E0,2.561874092E-1,-5.815693378E0
2.154017645E0,8.882759094E0,2.513988614E-1,-5.808510780E0
2.156018978E0,8.868393898E0,2.681587934E-1,-5.791750908E0
2.158020344E0,8.877970695E0,2.609759569E-1,-5.810904980E0
2.160021677E0,8.889942169E0,2.513988614E-1,-5.815693378E0
2.162022843E0,8.892336845E0,2.561874092E-1,-5.822876453E0
2.164024209E0,8.918673515E0,2.657645047E-1,-5.832453251E0
2.166025542E0,8.928250313E0,2.729473412E-1,-5.846818924E0
2.168026875E0,8.933039665E0,2.753416002E-1,-5.820482254E0
2.170028975E0,8.968953133E0,2.729473412E-1,-5.803721905E0
2.172030308E0,8.980924606E0,2.801301479E-1,-5.806116581E0
2.174031641E0,9.033598900E0,3.064671755E-1,-5.779779434E0
2.176033007E0,9.069513321E0,2.944957912E-1,-5.758230686E0
2.178034340E0,9.086273193E0,3.088614643E-1,-5.736682415E0
2.180035673E0,9.141341209E0,3.064671755E-1,-5.698374271E0
2.182037039E0,9.146129608E0,3.088614643E-1,-5.681613922E0
2.186034039E0,9.205986977E0,2.992843390E-1,-5.643305779E0
2.188035405E0,9.203592300E0,3.160442710E-1,-5.643305779E0
2.190036738E0,9.253871918E0,3.184385598E-1,-5.595420361E0
2.194037137E0,9.234718323E0,3.064671755E-1,-5.542746067E0
2.196038470E0,9.213169098E0,3.040728867E-1,-5.533169270E0
2.198039870E0,9.220352173E0,2.777358890E-1,-5.511620522E0
2.200041236E0,9.222746849E0,2.609759569E-1,-5.506832123E0
2.202042569E0,9.237112045E0,2.705530524E-1,-5.475706577E0
2.204043902E0,9.217958450E0,2.753416002E-1,-5.466129303E0
2.206045235E0,9.220352173E0,2.897072434E-1,-5.446975231E0
2.208046568E0,9.220352173E0,2.753416002E-1,-5.454157829E0
2.210047901E0,9.210775375E0,2.729473412E-1,-5.454157829E0
2.212048601E0,9.232323647E0,2.513988614E-1,-5.413455486E0
2.214050201E0,9.256266594E0,2.753416002E-1,-5.367964268E0
2.216051567E0,9.244295120E0,2.657645047E-1,-5.355992794E0
2.218052900E0,9.251478195E0,2.585816681E-1,-5.336838722E0
2.220054233E0,9.261054993E0,2.585816681E-1,-5.310501575E0
2.222055033E0,9.268238068E0,2.609759569E-1,-5.300924301E0
2.224056366E0,9.296969414E0,2.561874092E-1,-5.312895775E0
2.226057699E0,9.296969414E0,2.561874092E-1,-5.308107376E0
2.228059065E0,9.304151535E0,2.513988614E-1,-5.317684174E0
2.230059665E0,9.308940887E0,2.561874092E-1,-5.298530102E0
2.232060765E0,9.313729286E0,2.490045726E-1,-5.284164429E0
2.234062131E0,9.318517685E0,2.346389294E-1,-5.233884811E0
2.236063464E0,9.361614227E0,2.394274771E-1,-5.183605194E0
2.238064830E0,9.323306084E0,2.513988614E-1,-5.169239521E0
2.240066596E0,9.301757812E0,2.274561077E-1,-5.130930901E0
2.242067929E0,9.284997940E0,2.059076279E-1,-5.092622280E0
2.244069062E0,9.289786339E0,2.154847383E-1,-5.083045483E0
2.246070428E0,9.282603264E0,1.963305324E-1,-5.059102535E0
2.248071761E0,9.292180061E0,2.106961906E-1,-5.039948463E0
2.250073094E0,9.273026466E0,1.987248063E-1,-5.030371189E0
2.252074460E0,9.273026466E0,1.867534369E-1,-4.987274647E0
2.254075793E0,9.251478195E0,1.867534369E-1,-4.975303173E0
2.256077126E0,9.215563774E0,1.556278616E-1,-4.968120098E0
2.258078426E0,9.217958450E0,1.125309169E-1,-4.960937500E0
2.260079759E0,9.222746849E0,9.816526622E-2,-4.968120098E0
2.262081192E0,9.239506721E0,8.379961550E-2,-4.972908974E0
2.264082558E0,9.241900444E0,6.943397224E-2,-4.956148624E0
2.266083891E0,9.239506721E0,7.661679387E-2,-4.958543301E0
2.268085224E0,9.194015503E0,5.267404765E-2,-4.960937500E0
2.270086324E0,9.165284157E0,3.112557158E-2,-4.953754425E0
2.272088390E0,9.165284157E0,2.873129770E-2,-4.953754425E0
2.274089723E0,9.160495758E0,-9.577099234E-3,-4.972908974E0
2.276095889E0,9.182044029E0,-4.070267081E-2,-4.963331699E0
2.278097222E0,9.189227104E0,-3.112557158E-2,-4.968120098E0
2.280098555E0,9.203592300E0,-6.943397224E-2,-4.968120098E0
2.282099888E0,9.215563774E0,-8.140534163E-2,-4.982485771E0
2.284101221E0,9.246688843E0,-1.221080124E-1,-4.968120098E0
2.286102587E0,9.277814865E0,-1.268965602E-1,-4.951360226E0
2.288103920E0,9.263449669E0,-1.221080124E-1,-4.939388752E0
2.290105253E0,9.273026466E0,-1.245022863E-1,-4.927417755E0
2.292106686E0,9.251478195E0,-1.580221355E-1,-4.893897533E0
2.294108019E0,9.261054993E0,-1.652049571E-1,-4.879531860E0
2.296109352E0,9.251478195E0,-1.675992310E-1,-4.846012115E0
2.298110685E0,9.273026466E0,-1.939362586E-1,-4.826858044E0
2.300111618E0,9.313729286E0,-2.226675600E-1,-4.769395351E0
2.302112951E0,9.325700760E0,-2.154847383E-1,-4.762212753E0
2.304114517E0,9.330489159E0,-2.298503816E-1,-4.735875607E0
2.306115850E0,9.340065956E0,-1.891477108E-1,-4.683201313E0
2.308117183E0,9.330489159E0,-1.891477108E-1,-4.623344421E0
2.310118549E0,9.323306084E0,-1.843591630E-1,-4.577853203E0
2.312119882E0,9.332882881E0,-1.771763414E-1,-4.503631115E0
2.314121215E0,9.311334610E0,-1.484450400E-1,-4.508419514E0
2.316122581E0,9.308940887E0,-1.532335877E-1,-4.522785187E0
2.318123681E0,9.289786339E0,-1.245022863E-1,-4.486870766E0
2.320125014E0,9.275420189E0,-1.125309169E-1,-4.424619675E0
2.322126280E0,9.253871918E0,-9.098244458E-2,-4.403071404E0
2.324127613E0,9.237112045E0,-6.703969836E-2,-4.340820312E0
2.326128946E0,9.229928970E0,-5.027977005E-2,-4.326454639E0
2.328130312E0,9.201197624E0,-3.830839694E-2,-4.319271564E0
2.330131912E0,9.172467232E0,-2.873129770E-2,-4.249837875E0
2.332132845E0,9.174860954E0,4.788549617E-3,-4.233078003E0
2.334134211E0,9.155706406E0,2.154847234E-2,-4.204346657E0
2.338132044E0,9.122186661E0,5.506832153E-2,-4.180403709E0
2.340133410E0,9.115004539E0,8.140534163E-2,-4.142095566E0
2.342134743E0,9.107821465E0,1.149251908E-1,-4.094210148E0
2.344136076E0,9.105426788E0,1.173194647E-1,-4.060689926E0
2.346137409E0,9.126976013E0,1.101366431E-1,-3.998438835E0
2.348138742E0,9.110215187E0,1.245022863E-1,-3.936187744E0
2.350140075E0,9.107821465E0,1.675992310E-1,-3.938581944E0
2.352141575E0,9.126976013E0,1.891477108E-1,-4.008016109E0
2.354142908E0,9.115004539E0,1.987248063E-1,-4.022381783E0
2.356144274E0,9.105426788E0,1.939362586E-1,-4.017592907E0
2.358145607E0,9.074301720E0,2.106961906E-1,-4.000833035E0
2.360146940E0,9.062330246E0,2.250618339E-1,-4.010410309E0
2.362148306E0,9.052753448E0,2.370332032E-1,-4.017592907E0
2.364149639E0,9.055147171E0,2.705530524E-1,-4.036747456E0
2.366150972E0,9.031204224E0,2.849186957E-1,-4.060689926E0
2.368152338E0,9.004867554E0,2.729473412E-1,-4.029564381E0
2.370153671E0,8.980924606E0,2.849186957E-1,-4.005621910E0
2.372155004E0,8.949799538E0,2.705530524E-1,-3.957736254E0
2.374156370E0,8.942616463E0,2.705530524E-1,-3.938581944E0
2.376157703E0,8.921068192E0,2.897072434E-1,-3.945764780E0
2.378159269E0,8.899519920E0,2.490045726E-1,-3.962524891E0
2.380160635E0,8.865999222E0,2.346389294E-1,-3.967313290E0
2.382161968E0,8.834874153E0,2.202732861E-1,-3.972101927E0
2.384168834E0,8.791776657E0,2.059076279E-1,-3.976890564E0
2.386170200E0,8.765439987E0,2.083019018E-1,-3.974496126E0
2.388171533E0,8.739103317E0,2.154847383E-1,-3.988861799E0
2.390172866E0,8.688823700E0,2.178790122E-1,-3.955342054E0
2.392173899E0,8.662486076E0,2.585816681E-1,-4.017592907E0
2.394175232E0,8.676852226E0,3.160442710E-1,-4.094210148E0
2.396182365E0,8.664880753E0,3.519583941E-1,-4.218712330E0
2.398183731E0,8.696005821E0,2.753416002E-1,-4.072661400E0
2.400185364E0,8.655303001E0,1.819648892E-1,-3.735068798E0
2.402186697E0,8.518829346E0,1.101366431E-1,-3.466909885E0
2.404188063E0,8.461367607E0,9.098244458E-2,-3.380716085E0
2.406189396E0,8.403904915E0,2.394274808E-2,-3.301704884E0
2.408190729E0,8.367990494E0,-7.182824425E-3,-3.332830429E0
2.410192095E0,8.363202095E0,0.000000000E0,-3.390293121E0
2.412193428E0,8.334470749E0,2.394274808E-3,-3.555498123E0
2.414194761E0,8.305739403E0,-1.915419847E-2,-3.670423269E0
2.416196094E0,8.284191132E0,-2.154847234E-2,-3.706337452E0
2.418197427E0,8.248276711E0,-2.154847234E-2,-3.699154615E0
2.420198527E0,8.231516838E0,-1.436564885E-2,-3.696760416E0
2.422199860E0,8.217150688E0,-9.577099234E-3,-3.658451796E0
2.424202060E0,8.147717476E0,1.436564885E-2,-3.557892323E0
2.426203426E0,8.145322800E0,1.197137404E-2,-3.488458395E0
2.428204759E0,8.123774529E0,4.070267081E-2,-3.383110285E0
2.430206092E0,8.111803055E0,4.309694469E-2,-3.289733648E0
2.432207458E0,8.102226257E0,2.873129770E-2,-3.251425266E0
2.434208791E0,8.104619980E0,3.591412306E-2,-3.205934048E0
2.436211824E0,8.095043182E0,5.027977005E-2,-3.186779737E0
2.438213190E0,8.083071709E0,3.830839694E-2,-3.184385538E0
2.440214523E0,8.071100235E0,4.070267081E-2,-3.184385538E0
2.442215856E0,8.071100235E0,3.112557158E-2,-3.184385538E0
2.446213022E0,8.037580490E0,5.267404765E-2,-3.158048391E0
2.448214355E0,8.018425941E0,4.549122229E-2,-3.124528646E0
2.450215721E0,8.001666069E0,4.070267081E-2,-3.086220264E0
2.452217054E0,7.982511997E0,2.633702382E-2,-3.040729046E0
2.454218687E0,7.984906673E0,2.873129770E-2,-3.021574736E0
2.458215586E0,7.939415455E0,2.394274808E-3,-2.918621063E0
2.460216619E0,7.915472507E0,2.633702382E-2,-2.906649590E0
2.462224619E0,7.903501034E0,-4.788549617E-3,-2.861158371E0
2.464225952E0,7.884346962E0,-2.394274808E-3,-2.801301479E0
2.466227285E0,7.872375488E0,2.394274808E-3,-2.765387297E0
2.468228651E0,7.865192890E0,-1.197137404E-2,-2.707924843E0
2.470229851E0,7.853221416E0,-1.197137404E-2,-2.652856588E0
2.472231184E0,7.850827217E0,-2.394274808E-3,-2.612153769E0
2.474232550E0,7.853221416E0,2.394274808E-3,-2.525959969E0
2.476233883E0,7.860404015E0,7.182824425E-3,-2.480468750E0
2.478235216E0,7.848433018E0,7.182824425E-3,-2.420611858E0
2.480236816E0,7.841249943E0,1.436564885E-2,-2.353572130E0
2.482240916E0,7.836461544E0,1.436564885E-2,-2.320052385E0
2.484241382E0,7.829278469E0,7.182824425E-3,-2.245829821E0
2.486242715E0,7.802941799E0,4.788549617E-3,-2.176395893E0
2.488244048E0,7.795758724E0,2.394274808E-3,-2.142875910E0
2.490245381E0,7.786181450E0,1.197137404E-2,-2.071047783E0
2.492246714E0,7.769421577E0,7.182824425E-3,-2.042316437E0
2.494248047E0,7.767027378E0,1.915419847E-2,-1.987248063E0
2.496248580E0,7.731113434E0,1.197137404E-2,-1.913025618E0
2.498249913E0,7.716747761E0,-7.182824425E-3,-1.867534399E0
2.500251246E0,7.680833817E0,-1.197137404E-2,-1.798100352E0
2.502252612E0,7.649707794E0,-2.154847234E-2,-1.709512234E0
2.504253945E0,7.644919395E0,-2.873129770E-2,-1.664021015E0
2.506255278E0,7.587456703E0,-2.394274808E-2,-1.616135478E0
2.508256644E0,7.553936958E0,-3.591412306E-2,-1.558672905E0
2.510257977E0,7.525205612E0,-4.070267081E-2,-1.534730196E0
2.512259310E0,7.482108593E0,-6.703969836E-2,-1.474873304E0
2.514260876E0,7.439012051E0,-9.098244458E-2,-1.429382086E0
2.516262209E0,7.417463303E0,-1.005595401E-1,-1.393467903E0
2.518263309E0,7.379155159E0,-1.221080124E-1,-1.352765322E0
2.520264675E0,7.348029613E0,-1.245022863E-1,-1.316851139E0
2.524260708E0,7.237892628E0,-1.436564922E-1,-1.271359921E0
2.526262074E0,7.199584484E0,-1.532335877E-1,-1.268965602E0
2.528263407E0,7.130150318E0,-1.580221355E-1,-1.254600048E0
2.530264873E0,7.055927753E0,-1.675992310E-1,-1.230657220E0
2.532266239E0,7.029590607E0,-1.819648892E-1,-1.201925993E0
2.534267572E0,6.967339516E0,-1.915419847E-1,-1.194743156E0
2.536268905E0,6.890722752E0,-1.891477108E-1,-1.177983165E0
2.538270038E0,6.857203007E0,-1.843591630E-1,-1.194743156E0
2.540271471E0,6.778192043E0,-1.795706153E-1,-1.177983165E0
2.544271403E0,6.691998005E0,-1.963305324E-1,-1.139674783E0
2.546272736E0,6.658478260E0,-2.011190802E-1,-1.094183564E0
2.548274802E0,6.620169640E0,-1.939362586E-1,-1.106154919E0
2.550276168E0,6.569890022E0,-2.011190802E-1,-1.067846537E0
2.552277501E0,6.543552876E0,-2.154847383E-1,-1.034326673E0
2.554278834E0,6.512427330E0,-1.987248063E-1,-1.024749637E0
2.556279300E0,6.469330311E0,-2.083019018E-1,-9.744698405E-1
2.558280633E0,6.452570438E0,-2.083019018E-1,-9.457385540E-1
2.560281966E0,6.435810566E0,-2.130904645E-1,-9.337671995E-1
2.562283199E0,6.378347874E0,-2.274561077E-1,-9.098244309E-1
2.564284532E0,6.332856655E0,-2.226675600E-1,-8.810931444E-1
2.566285865E0,6.323279858E0,-2.130904645E-1,-8.786988258E-1
2.568287198E0,6.294548512E0,-2.154847383E-1,-9.026415944E-1
2.570288531E0,6.284971237E0,-2.298503816E-1,-8.978530765E-1
2.572289897E0,6.258634567E0,-2.322446555E-1,-8.906702399E-1
2.574290730E0,6.234691620E0,-2.346389294E-1,-8.906702399E-1
2.576292063E0,6.239480019E0,-2.130904645E-1,-8.786988258E-1
2.578293663E0,6.220325947E0,-2.202732861E-1,-8.667274714E-1
2.580294996E0,6.220325947E0,-2.346389294E-1,-8.379961848E-1
2.582296329E0,6.227508545E0,-2.561874092E-1,-8.332076073E-1
2.584297695E0,6.205960274E0,-3.136500120E-1,-8.044763207E-1
2.586299028E0,6.208354473E0,-3.711125851E-1,-7.446194887E-1
2.588300361E0,6.193988800E0,-3.806896806E-1,-7.230709791E-1
2.590301727E0,6.122160912E0,-3.399870098E-1,-7.039167881E-1
2.592303060E0,6.091034889E0,-2.753416002E-1,-7.278595567E-1
2.594304393E0,6.055120945E0,-2.394274771E-1,-7.613793612E-1
2.596305759E0,6.028783798E0,-1.747820675E-1,-8.068706393E-1
2.598307325E0,5.990475655E0,-1.675992310E-1,-8.332076073E-1
2.600308558E0,5.928224564E0,-1.484450400E-1,-8.595446348E-1
2.602315958E0,5.923435688E0,-1.484450400E-1,-8.619389534E-1
2.604317291E0,5.944984436E0,-1.460507661E-1,-8.332076073E-1
2.606318624E0,5.942590237E0,-1.412622184E-1,-8.116591573E-1
2.608319257E0,5.952167034E0,-1.268965602E-1,-7.829278708E-1
2.610320590E0,5.947378635E0,-1.412622184E-1,-7.613793612E-1
2.612321923E0,5.930618763E0,-1.580221355E-1,-7.565908432E-1
2.614323289E0,5.911464691E0,-1.747820675E-1,-7.494080067E-1
2.616324622E0,5.899493217E0,-1.723877788E-1,-7.541965842E-1
2.618325955E0,5.911464691E0,-1.987248063E-1,-7.470137477E-1
2.620327321E0,5.913858891E0,-1.747820675E-1,-7.565908432E-1
2.622328521E0,5.906675816E0,-1.652049571E-1,-7.709565163E-1
2.624329854E0,5.937801361E0,-1.484450400E-1,-7.925049663E-1
2.626331220E0,5.954561234E0,-1.245022863E-1,-7.757450342E-1
2.628332320E0,5.968926907E0,-1.245022863E-1,-7.853221297E-1
2.630333653E0,6.019207001E0,-1.125309169E-1,-7.925049663E-1
2.632334986E0,6.016812801E0,-9.816526622E-2,-7.709565163E-1
2.634336319E0,6.052726746E0,-1.197137386E-1,-7.613793612E-1
2.636337685E0,6.103006363E0,-1.388679445E-1,-7.398309112E-1
2.638339018E0,6.131737709E0,-1.316851079E-1,-7.302538157E-1
2.640340351E0,6.179623127E0,-1.292908341E-1,-6.919454336E-1
2.642341717E0,6.191594601E0,-1.316851079E-1,-6.799740195E-1
2.644343050E0,6.239480019E0,-1.556278616E-1,-6.488484740E-1
2.646344383E0,6.280182838E0,-1.843591630E-1,-5.722316504E-1
2.648345749E0,6.332856655E0,-1.747820675E-1,-5.650488734E-1
2.650347082E0,6.411868095E0,-2.035133541E-1,-5.363175869E-1
2.652348415E0,6.498061657E0,-2.490045726E-1,-5.075862408E-1
2.654349781E0,6.545947552E0,-2.394274771E-1,-4.908263385E-1
2.656351114E0,6.629746914E0,-2.537931204E-1,-4.692778587E-1
2.658352614E0,6.749460697E0,-2.777358890E-1,-4.501236677E-1
2.660353980E0,6.873962879E0,-2.729473412E-1,-4.261809289E-1
2.662354913E0,6.943397045E0,-2.753416002E-1,-4.189980924E-1
2.664356246E0,7.048745155E0,-2.442160249E-1,-4.237866402E-1
2.666357612E0,7.106207848E0,-2.442160249E-1,-3.902668059E-1
2.668358712E0,7.235498428E0,-2.657645047E-1,-3.735068738E-1
2.670360045E0,7.288172722E0,-2.490045726E-1,-3.711125851E-1
2.672361411E0,7.424646378E0,-2.394274771E-1,-3.328042030E-1
2.674362744E0,7.565908432E0,-2.178790122E-1,-2.801301479E-1
2.676364077E0,7.644919395E0,-2.059076279E-1,-2.609759569E-1
2.678365443E0,7.764633179E0,-1.771763414E-1,-2.370332032E-1
2.680366776E0,7.881952763E0,-1.436564922E-1,-1.963305324E-1
2.682368342E0,7.946598053E0,-1.101366431E-1,-1.771763414E-1
2.684369708E0,8.092648506E0,-5.985686928E-2,-1.556278616E-1
2.686371041E0,8.195602417E0,-2.394274808E-2,-1.843591630E-1
2.688372607E0,8.243488312E0,-1.197137404E-2,-1.604164094E-1
2.690373973E0,8.353624344E0,-9.577099234E-3,-5.267404765E-2
2.692375306E0,8.451789856E0,-7.182824425E-3,-1.197137404E-2
2.694376639E0,8.566715240E0,4.549122229E-2,5.746259540E-2
2.696377972E0,8.660092354E0,6.703969836E-2,2.394274808E-3
2.698379305E0,8.676852226E0,8.619388938E-2,-2.154847234E-2
2.700380638E0,8.712765694E0,1.245022863E-1,-8.379961550E-2
2.702381971E0,8.722343445E0,1.460507661E-1,-1.292908341E-1
2.704383304E0,8.717555046E0,1.388679445E-1,-1.460507661E-1
2.706384637E0,8.734314919E0,1.197137386E-1,-1.436564922E-1
2.708385970E0,8.772623062E0,1.245022863E-1,-1.460507661E-1
2.710387570E0,8.798959732E0,1.221080124E-1,-1.245022863E-1
2.712388936E0,8.839662552E0,1.484450400E-1,-1.101366431E-1
2.714390269E0,8.873182297E0,1.652049571E-1,-9.098244458E-2
2.716391602E0,8.909096718E0,1.580221355E-1,-6.464541703E-2
2.718392802E0,8.952193260E0,1.699935049E-1,-4.788549617E-2
2.720394135E0,9.028810501E0,1.819648892E-1,7.901106775E-2
2.724391201E0,9.201197624E0,2.035133541E-1,2.346389294E-1
2.726392534E0,9.232323647E0,1.843591630E-1,2.442160249E-1
2.728394100E0,9.208380699E0,1.987248063E-1,1.388679445E-1
2.730395466E0,9.110215187E0,1.843591630E-1,5.746259540E-2
2.732396799E0,9.071907043E0,1.699935049E-1,2.154847234E-2
2.734398132E0,9.021627426E0,1.197137386E-1,-1.436564885E-2
2.736399498E0,9.021627426E0,1.005595401E-1,-1.436564885E-2
2.738400831E0,9.026415825E0,8.379961550E-2,7.182824425E-3
2.740402164E0,9.028810501E0,5.027977005E-2,-2.394274808E-3
2.742403530E0,9.035993576E0,5.985686928E-2,-7.182824425E-3
2.744404863E0,9.076695442E0,7.661679387E-2,-5.027977005E-2
2.746406196E0,9.064723969E0,2.178790122E-1,-3.040728867E-1
2.748407562E0,9.138946533E0,1.867534369E-1,-3.351984620E-1
2.750408895E0,9.344854355E0,1.340793967E-1,-3.016786277E-1
2.752410228E0,9.392740250E0,1.460507661E-1,-1.173194647E-1
2.754411594E0,9.421471596E0,1.484450400E-1,6.703969836E-2
2.756412927E0,9.306546211E0,2.609759569E-1,3.112557232E-1
2.758414260E0,9.162889481E0,3.328042030E-1,4.094209969E-1
2.760415626E0,9.148524284E0,2.777358890E-1,4.573064744E-1
2.762419826E0,9.167677879E0,1.675992310E-1,5.075862408E-1
2.764421159E0,9.088666916E0,1.101366431E-1,4.549122155E-1
2.766422525E0,9.031204224E0,9.098244458E-2,4.094209969E-1
2.768423858E0,8.942616463E0,8.379961550E-2,2.394274771E-1
2.770424924E0,8.947404861E0,8.140534163E-2,1.604164094E-1
2.772426257E0,9.031204224E0,5.746259540E-2,-1.675992459E-2
2.774427590E0,9.172467232E0,3.351984918E-2,-3.351984918E-2
2.776428923E0,9.196409225E0,4.549122229E-2,-2.394274808E-3
2.778430256E0,9.134158134E0,6.943397224E-2,7.661679387E-2
2.780431589E0,9.071907043E0,7.901106775E-2,1.652049571E-1
2.782432955E0,9.079090118E0,6.225114316E-2,2.035133541E-1
2.784434288E0,9.105426788E0,1.915419847E-2,2.466102988E-1
2.786435621E0,9.172467232E0,-1.436564885E-2,2.657645047E-1
2.788436821E0,9.198803902E0,4.788549617E-3,2.250618339E-1
2.790438154E0,9.249083519E0,1.197137404E-2,1.843591630E-1
2.792439487E0,9.268238068E0,1.436564885E-2,1.580221355E-1
2.794440853E0,9.306546211E0,3.112557158E-2,1.053480953E-1
2.796442186E0,9.325700760E0,4.309694469E-2,1.245022863E-1
2.798443519E0,9.316123009E0,4.309694469E-2,1.268965602E-1
2.800449785E0,9.313729286E0,5.027977005E-2,1.604164094E-1
2.802451118E0,9.289786339E0,4.788549617E-2,1.628106833E-1
2.804452218E0,9.306546211E0,4.788549617E-2,1.747820675E-1
2.806453584E0,9.294574738E0,6.225114316E-2,2.370332032E-1
2.808454917E0,9.265843391E0,6.943397224E-2,3.519583941E-1
2.810456250E0,9.241900444E0,6.943397224E-2,3.878725171E-1
2.812457616E0,9.222746849E0,7.901106775E-2,4.453351200E-1
2.814458949E0,9.203592300E0,7.422251999E-2,4.668835998E-1
2.816460749E0,9.158101082E0,4.549122229E-2,4.644893110E-1
2.818461849E0,9.138946533E0,5.746259540E-2,4.477293789E-1
2.820463182E0,9.129369736E0,5.746259540E-2,4.453351200E-1
2.824463048E0,9.117398262E0,8.379961550E-2,4.453351200E-1
2.826464381E0,9.105426788E0,6.703969836E-2,4.405465722E-1
2.828465714E0,9.091061592E0,5.985686928E-2,4.525179267E-1
2.830467080E0,9.064723969E0,6.703969836E-2,4.764606953E-1
2.832468413E0,9.045570374E0,5.746259540E-2,4.716721475E-1
2.834469746E0,9.052753448E0,5.027977005E-2,4.956148863E-1
2.836470846E0,9.074301720E0,4.309694469E-2,5.027977228E-1
2.838472179E0,9.088666916E0,5.267404765E-2,5.099805593E-1
2.840473512E0,9.098244667E0,3.112557158E-2,4.860377908E-1
2.842474845E0,9.112609863E0,2.633702382E-2,4.908263385E-1
2.844476178E0,9.115004539E0,4.309694469E-2,5.075862408E-1
2.846477511E0,9.110215187E0,5.027977005E-2,5.171633363E-1
2.848479011E0,9.115004539E0,4.070267081E-2,5.482889414E-1
2.850486477E0,9.150918007E0,2.154847234E-2,5.219519138E-1
2.852488543E0,9.155706406E0,2.633702382E-2,5.315290093E-1
2.854489643E0,9.155706406E0,2.394274808E-3,5.506832004E-1
2.856490976E0,9.167677879E0,2.633702382E-2,5.411061049E-1
2.858492342E0,9.203592300E0,3.591412306E-2,5.578660369E-1
2.862490108E0,9.210775375E0,3.591412306E-2,5.746259689E-1
2.864491708E0,9.222746849E0,3.351984918E-2,5.818088055E-1
2.866493208E0,9.258660316E0,4.070267081E-2,5.698373914E-1
2.868494541E0,9.273026466E0,3.830839694E-2,5.865973234E-1
2.870495907E0,9.296969414E0,2.873129770E-2,5.889915824E-1
2.872501507E0,9.325700760E0,4.070267081E-2,6.105400920E-1
2.874502840E0,9.340065956E0,4.070267081E-2,6.536370516E-1
2.876503740E0,9.352037430E0,4.549122229E-2,6.751855016E-1
2.878505340E0,9.368797302E0,4.788549617E-2,6.871568561E-1
2.880506673E0,9.354432106E0,4.549122229E-2,7.087053657E-1
2.882508739E0,9.352037430E0,4.788549617E-2,7.374366522E-1
2.884510039E0,9.383162498E0,4.070267081E-2,7.494080067E-1
2.886511372E0,9.387951851E0,3.830839694E-2,7.541965842E-1
2.888512738E0,9.426259995E0,2.154847234E-2,7.925049663E-1
2.890514071E0,9.440625191E0,3.112557158E-2,7.972934842E-1
2.892515404E0,9.454991341E0,4.549122229E-2,8.140534163E-1
2.894516770E0,9.471751213E0,4.549122229E-2,8.260248303E-1
2.896518136E0,9.469356537E0,4.549122229E-2,8.739103079E-1
2.898519469E0,9.476539612E0,4.549122229E-2,8.834874034E-1
2.900520835E0,9.488511086E0,5.985686928E-2,9.241901040E-1
2.902525435E0,9.514847755E0,4.788549617E-2,9.313728809E-1
2.904526768E0,9.536396980E0,4.309694469E-2,9.313728809E-1
2.906528134E0,9.541185379E0,4.788549617E-2,9.744698405E-1
2.908529467E0,9.538790703E0,5.267404765E-2,9.792584181E-1
2.912525300E0,9.565128326E0,7.661679387E-2,1.058269501E0
2.914531700E0,9.574705124E0,5.267404765E-2,1.096577883E0
2.916532833E0,9.574705124E0,5.027977005E-2,1.106154919E0
2.918534166E0,9.574705124E0,4.788549617E-2,1.113337755E0
2.920535499E0,9.586676598E0,4.309694469E-2,1.120520592E0
2.922536865E0,9.613013268E0,3.112557158E-2,1.139674783E0
2.924538198E0,9.613013268E0,1.436564885E-2,1.180377483E0
2.926540698E0,9.636956215E0,0.000000000E0,1.180377483E0
2.928542064E0,9.617801666E0,-1.197137404E-2,1.189954638E0
2.930543397E0,9.620196342E0,-4.788549617E-2,1.166011810E0
2.934541829E0,9.660899162E0,-6.225114316E-2,1.156434774E0
2.936543162E0,9.656110764E0,-8.379961550E-2,1.146857619E0
2.938544495E0,9.670475960E0,-8.379961550E-2,1.156434774E0
2.940545861E0,9.682447433E0,-1.029538140E-1,1.156434774E0
2.942546494E0,9.684841156E0,-1.125309169E-1,1.168406129E0
2.944547827E0,9.701601982E0,-1.053480953E-1,1.228263021E0
2.946549193E0,9.718361855E0,-1.053480953E-1,1.273754239E0
2.948550526E0,9.708784103E0,-1.101366431E-1,1.276148438E0
2.950551859E0,9.725543976E0,-1.053480953E-1,1.309668303E0
2.952553225E0,9.727938652E0,-1.364736706E-1,1.304879785E0
2.954554558E0,9.730332375E0,-1.292908341E-1,1.324033976E0
2.956556124E0,9.747093201E0,-1.652049571E-1,1.309668303E0
2.958557490E0,9.730332375E0,-1.628106833E-1,1.304879785E0
2.960558823E0,9.718361855E0,-1.747820675E-1,1.276148438E0
2.964558222E0,9.701601982E0,-1.652049571E-1,1.280937076E0
2.966559555E0,9.684841156E0,-1.604164094E-1,1.259388566E0
2.968560888E0,9.675264359E0,-1.939362586E-1,1.216291547E0
2.970562254E0,9.672870636E0,-1.987248063E-1,1.235445857E0
2.972563587E0,9.694418907E0,-1.963305324E-1,1.189954638E0
2.976561653E0,9.663292885E0,-1.915419847E-1,1.101366401E0
2.978562986E0,9.639349937E0,-2.059076279E-1,1.094183564E0
2.980564319E0,9.601041794E0,-2.370332032E-1,1.089395046E0
2.982565652E0,9.586676598E0,-2.346389294E-1,1.091789365E0
2.984566985E0,9.565128326E0,-2.490045726E-1,1.091789365E0
2.986566985E0,9.538790703E0,-2.466102988E-1,1.087000728E0
2.988568318E0,9.488511086E0,-2.322446555E-1,1.094183564E0
2.990569651E0,9.454991341E0,-2.154847383E-1,1.108549237E0
2.992571017E0,9.431048393E0,-2.322446555E-1,1.091789365E0
2.994572350E0,9.368797302E0,-2.513988614E-1,1.096577883E0
2.996573683E0,9.311334610E0,-2.537931204E-1,1.091789365E0
2.998575049E0,9.275420189E0,-2.633702159E-1,1.098972082E0
3.000576382E0,9.208380699E0,-2.561874092E-1,1.125309110E0
3.002577715E0,9.148524284E0,-2.442160249E-1,1.094183564E0
3.004579081E0,9.115004539E0,-2.609759569E-1,1.072635174E0
3.006580414E0,9.050358772E0,-2.633702159E-1,1.087000728E0
3.008581747E0,9.038387299E0,-2.298503816E-1,1.079817891E0
3.010583113E0,8.988107681E0,-2.202732861E-1,1.034326673E0
3.012584446E0,8.928250313E0,-2.011190802E-1,9.888355136E-1
3.014585779E0,8.899519920E0,-2.130904645E-1,9.936240315E-1
3.016588012E0,8.870788574E0,-2.011190802E-1,1.010383964E0
3.021252790E0,8.789382935E0,-1.939362586E-1,1.029538155E0
3.023254123E0,8.722343445E0,-1.675992310E-1,1.039115310E0
3.025255523E0,8.686429024E0,-1.675992310E-1,1.048692346E0
3.027256856E0,8.605023384E0,-1.819648892E-1,1.082212210E0
3.029258189E0,8.585869789E0,-1.723877788E-1,1.094183564E0
3.031259555E0,8.530800819E0,-1.221080124E-1,1.127703428E0
3.033260888E0,8.497281075E0,-1.292908341E-1,1.130097747E0
3.035262121E0,8.490098000E0,-1.316851079E-1,1.163617611E0
3.037263487E0,8.444606781E0,-1.388679445E-1,1.182771802E0
3.039264820E0,8.430241585E0,-1.268965602E-1,1.177983165E0
3.041266153E0,8.396721840E0,-1.125309169E-1,1.216291547E0
3.043267519E0,8.363202095E0,-1.221080124E-1,1.218685865E0
3.045268852E0,8.351230621E0,-1.077423692E-1,1.216291547E0
3.047270185E0,8.363202095E0,-1.292908341E-1,1.240234375E0
3.049271551E0,8.344047546E0,-1.484450400E-1,1.256994247E0
3.051272884E0,8.320104599E0,-1.173194647E-1,1.268965602E0
3.053274217E0,8.317710876E0,-1.364736706E-1,1.276148438E0
3.055275550E0,8.334470749E0,-1.460507661E-1,1.295302629E0
3.057276883E0,8.334470749E0,-1.556278616E-1,1.295302629E0
3.059278216E0,8.348835945E0,-1.795706153E-1,1.336005330E0
3.061279549E0,8.344047546E0,-1.771763414E-1,1.338399649E0
3.063280882E0,8.367990494E0,-1.699935049E-1,1.343188167E0
3.065282248E0,8.358413696E0,-1.795706153E-1,1.359948039E0
3.067283581E0,8.382355690E0,-1.939362586E-1,1.359948039E0
3.069284914E0,8.406298637E0,-2.298503816E-1,1.388679385E0
3.071286280E0,8.420664787E0,-2.394274771E-1,1.393467903E0
3.073288113E0,8.439818382E0,-2.298503816E-1,1.376708031E0
3.075289446E0,8.499675751E0,-2.298503816E-1,1.395862222E0
3.077291046E0,8.533195496E0,-2.346389294E-1,1.395862222E0
3.079291512E0,8.537983894E0,-2.466102988E-1,1.391073704E0
3.081292478E0,8.583475113E0,-2.466102988E-1,1.379102230E0
3.083294578E0,8.636149406E0,-2.370332032E-1,1.403045058E0
3.085295911E0,8.652909279E0,-2.442160249E-1,1.405439258E0
3.087297244E0,8.710371971E0,-2.418217510E-1,1.407833576E0
3.089298610E0,8.710371971E0,-2.418217510E-1,1.405439258E0
3.091299676E0,8.765439987E0,-2.250618339E-1,1.405439258E0
3.093301009E0,8.825297356E0,-2.274561077E-1,1.391073704E0
3.095302342E0,8.851634026E0,-2.370332032E-1,1.388679385E0
3.097303675E0,8.887548447E0,-2.537931204E-1,1.395862222E0
3.099305008E0,8.925856590E0,-2.633702159E-1,1.381496549E0
3.101306374E0,8.937828064E0,-2.513988614E-1,1.386285067E0
3.103307707E0,8.983319283E0,-2.585816681E-1,1.379102230E0
3.105309040E0,9.016839027E0,-2.777358890E-1,1.391073704E0
3.107310406E0,9.035993576E0,-2.921015322E-1,1.393467903E0
3.109311739E0,9.069513321E0,-2.825244367E-1,1.388679385E0
3.111313072E0,9.093455315E0,-2.897072434E-1,1.403045058E0
3.113314438E0,9.146129608E0,-2.992843390E-1,1.386285067E0
3.115315771E0,9.182044029E0,-2.873129845E-1,1.371919513E0
3.117317104E0,9.210775375E0,-2.849186957E-1,1.340793848E0
3.119318470E0,9.239506721E0,-2.873129845E-1,1.331216812E0
3.121319803E0,9.263449669E0,-2.801301479E-1,1.336005330E0
3.123321136E0,9.289786339E0,-2.873129845E-1,1.316851139E0
3.125322869E0,9.337671280E0,-2.944957912E-1,1.316851139E0
3.127324202E0,9.359220505E0,-2.753416002E-1,1.331216812E0
3.129325535E0,9.371191978E0,-2.897072434E-1,1.328822494E0
3.131326868E0,9.411893845E0,-3.040728867E-1,1.328822494E0
3.133327701E0,9.431048393E0,-2.921015322E-1,1.321639657E0
3.135329067E0,9.481328011E0,-2.921015322E-1,1.312062621E0
3.137330167E0,9.524425507E0,-2.992843390E-1,1.316851139E0
3.139331500E0,9.534002304E0,-2.968900800E-1,1.316851139E0
3.141332866E0,9.572310448E0,-3.160442710E-1,1.314456820E0
3.143333466E0,9.605830193E0,-3.064671755E-1,1.295302629E0
3.145334866E0,9.615407944E0,-3.040728867E-1,1.283331275E0
3.147336232E0,9.624984741E0,-3.016786277E-1,1.307274103E0
3.149337765E0,9.636956215E0,-3.184385598E-1,1.309668303E0
3.151339365E0,9.656110764E0,-3.136500120E-1,1.326428294E0
3.153343065E0,9.663292885E0,-3.328042030E-1,1.321639657E0
3.155344531E0,9.680052757E0,-3.375927508E-1,1.328822494E0
3.157345864E0,9.684841156E0,-3.399870098E-1,1.338399649E0
3.159347230E0,9.708784103E0,-3.232271075E-1,1.362342358E0
3.161348563E0,9.708784103E0,-3.304099143E-1,1.393467903E0
3.163349896E0,9.727938652E0,-3.184385598E-1,1.419804931E0
3.165351262E0,9.739910126E0,-3.232271075E-1,1.429382086E0
3.167352595E0,9.735121727E0,-3.208328187E-1,1.429382086E0
3.169353928E0,9.737515450E0,-3.184385598E-1,1.434170604E0
3.171355294E0,9.747093201E0,-3.232271075E-1,1.470084786E0
3.173356627E0,9.754275322E0,-3.232271075E-1,1.462901950E0
3.175357960E0,9.737515450E0,-3.304099143E-1,1.443747759E0
3.177359326E0,9.739910126E0,-3.304099143E-1,1.443747759E0
3.179360659E0,9.737515450E0,-3.471698463E-1,1.458113313E0
3.181361759E0,9.723150253E0,-3.543526828E-1,1.441353440E0
3.183363125E0,9.713572502E0,-3.471698463E-1,1.450930476E0
3.185364058E0,9.711178780E0,-3.471698463E-1,1.429382086E0
3.187365391E0,9.703995705E0,-3.663240373E-1,1.403045058E0
3.189366757E0,9.692024231E0,-3.878725171E-1,1.381496549E0
3.191368090E0,9.675264359E0,-3.735068738E-1,1.338399649E0
3.193369423E0,9.660899162E0,-3.782954216E-1,1.321639657E0
3.195370756E0,9.644139290E0,-3.950553536E-1,1.319245458E0
3.197372089E0,9.617801666E0,-3.926610649E-1,1.292908430E0
3.199373422E0,9.596253395E0,-3.902668059E-1,1.249811411E0
3.201374755E0,9.565128326E0,-4.046324492E-1,1.254600048E0
3.203376088E0,9.562733650E0,-4.094209969E-1,1.228263021E0
3.205377388E0,9.541185379E0,-4.166038036E-1,1.225868702E0
3.207378721E0,9.524425507E0,-4.189980924E-1,1.218685865E0
3.209379854E0,9.500482559E0,-4.237866402E-1,1.204320192E0
3.211387354E0,9.486116409E0,-4.189980924E-1,1.199531674E0
3.215387687E0,9.435836792E0,-4.285751879E-1,1.213897347E0
3.217389053E0,9.426259995E0,-4.309694767E-1,1.199531674E0
3.219390386E0,9.399923325E0,-4.309694767E-1,1.189954638E0
3.221391719E0,9.378374100E0,-4.429408312E-1,1.161223292E0
3.223393085E0,9.371191978E0,-4.597007632E-1,1.161223292E0
3.225394418E0,9.352037430E0,-4.668835998E-1,1.161223292E0
3.227395751E0,9.316123009E0,-4.716721475E-1,1.154040456E0
3.229396851E0,9.316123009E0,-4.668835998E-1,1.156434774E0
3.231398184E0,9.304151535E0,-4.668835998E-1,1.125309110E0
3.233399517E0,9.308940887E0,-4.405465722E-1,1.125309110E0
3.235400883E0,9.294574738E0,-4.525179267E-1,1.106154919E0
3.237402216E0,9.296969414E0,-4.573064744E-1,1.106154919E0
3.239403549E0,9.284997940E0,-4.597007632E-1,1.067846537E0
3.241405149E0,9.289786339E0,-4.501236677E-1,1.063058019E0
3.243406482E0,9.282603264E0,-4.620950520E-1,1.060663700E0
3.245407815E0,9.294574738E0,-4.525179267E-1,1.048692346E0
3.247409315E0,9.313729286E0,-4.549122155E-1,1.039115310E0
3.249410648E0,9.323306084E0,-4.573064744E-1,1.029538155E0
3.251411981E0,9.289786339E0,-4.453351200E-1,1.022355318E0
3.253413347E0,9.313729286E0,-4.668835998E-1,1.010383964E0
3.255414680E0,9.306546211E0,-4.549122155E-1,1.010383964E0
3.257416013E0,9.316123009E0,-4.812492430E-1,1.003201127E0
3.259417379E0,9.316123009E0,-4.597007632E-1,9.601042271E-1
3.261418712E0,9.332882881E0,-4.501236677E-1,9.792584181E-1
3.263420045E0,9.332882881E0,-4.357580245E-1,9.648927450E-1
3.265421378E0,9.337671280E0,-4.381522834E-1,9.529213905E-1
3.267422711E0,9.330489159E0,-4.429408312E-1,9.505270720E-1
3.269424044E0,9.335277557E0,-4.716721475E-1,9.289786220E-1
3.273420577E0,9.289786339E0,-4.668835998E-1,8.858816624E-1
3.275421910E0,9.311334610E0,-4.477293789E-1,8.667274714E-1
3.277423243E0,9.268238068E0,-4.620950520E-1,8.667274714E-1
3.279424576E0,9.275420189E0,-4.573064744E-1,8.595446348E-1
3.281425942E0,9.256266594E0,-4.620950520E-1,8.308133483E-1
3.283427275E0,9.265843391E0,-4.549122155E-1,8.308133483E-1
3.285428608E0,9.275420189E0,-4.381522834E-1,8.236305118E-1
3.287429974E0,9.244295120E0,-4.213923812E-1,8.212362528E-1
3.289431574E0,9.225140572E0,-4.046324492E-1,8.068706393E-1
3.291432907E0,9.210775375E0,-4.046324492E-1,7.996878028E-1
3.293434273E0,9.215563774E0,-3.998439014E-1,7.757450342E-1
3.295435606E0,9.172467232E0,-4.189980924E-1,7.829278708E-1
3.297436939E0,9.167677879E0,-4.166038036E-1,7.925049663E-1
3.299438305E0,9.143735886E0,-3.950553536E-1,7.925049663E-1
3.301439638E0,9.141341209E0,-3.878725171E-1,7.422251701E-1
3.303440971E0,9.095849991E0,-3.495641351E-1,6.991282701E-1
3.305442337E0,9.088666916E0,-3.567469418E-1,6.943396926E-1
3.307443537E0,9.055147171E0,-3.399870098E-1,6.320885420E-1
3.309444870E0,9.019232750E0,-3.543526828E-1,6.033572555E-1
3.311445970E0,9.014444351E0,-3.519583941E-1,6.033572555E-1
3.313447303E0,8.997684479E0,-3.447755575E-1,5.650488734E-1
3.315449369E0,8.961771011E0,-3.543526828E-1,5.363175869E-1
3.317450735E0,8.954587936E0,-3.615354896E-1,5.267404318E-1
3.319452068E0,8.954587936E0,-3.615354896E-1,5.099805593E-1
3.321453401E0,8.930644989E0,-3.567469418E-1,4.884320498E-1
3.323454767E0,8.904308319E0,-3.759011328E-1,4.549122155E-1
3.325456100E0,8.882759094E0,-3.854782581E-1,4.453351200E-1
3.327457433E0,8.846845627E0,-3.735068738E-1,4.309694767E-1
3.329458799E0,8.832479477E0,-3.854782581E-1,4.070267081E-1
3.331460132E0,8.842057228E0,-4.166038036E-1,3.711125851E-1
3.333461465E0,8.830085754E0,-3.998439014E-1,3.519583941E-1
3.335462831E0,8.813325882E0,-4.094209969E-1,3.351984620E-1
3.337464164E0,8.806142807E0,-4.453351200E-1,3.232271075E-1
3.339465497E0,8.818114281E0,-4.333637357E-1,3.232271075E-1
3.341466830E0,8.820508003E0,-4.357580245E-1,2.753416002E-1
3.343468163E0,8.834874153E0,-4.501236677E-1,2.633702159E-1
3.345469496E0,8.825297356E0,-4.453351200E-1,2.490045726E-1
3.347470596E0,8.849239349E0,-4.573064744E-1,2.370332032E-1
3.349471929E0,8.830085754E0,-4.668835998E-1,2.274561077E-1
3.351473295E0,8.834874153E0,-4.644893110E-1,2.106961906E-1
3.353474628E0,8.822902679E0,-4.501236677E-1,1.939362586E-1
3.355475961E0,8.798959732E0,-4.549122155E-1,1.867534369E-1
3.357477327E0,8.784594536E0,-4.644893110E-1,1.628106833E-1
3.359478660E0,8.767834663E0,-4.740664065E-1,1.460507661E-1
3.361479993E0,8.758256912E0,-4.740664065E-1,1.197137386E-1
3.363481359E0,8.758256912E0,-4.525179267E-1,6.464541703E-2
3.365482692E0,8.777411461E0,-4.285751879E-1,3.351984918E-2
3.367484025E0,8.770228386E0,-4.213923812E-1,1.675992459E-2
3.369485391E0,8.760651588E0,-4.046324492E-1,-4.549122229E-2
3.371486991E0,8.741497040E0,-4.166038036E-1,-6.943397224E-2
3.373488324E0,8.729525566E0,-4.022381604E-1,-7.661679387E-2
3.375488957E0,8.724737167E0,-4.070267081E-1,-9.337671846E-2
3.377490290E0,8.722343445E0,-3.902668059E-1,-1.077423692E-1
3.379491623E0,8.700794220E0,-3.926610649E-1,-1.292908341E-1
3.381492989E0,8.705583572E0,-4.118152559E-1,-1.484450400E-1
3.383494322E0,8.705583572E0,-4.261809289E-1,-1.580221355E-1
3.385495655E0,8.696005821E0,-4.094209969E-1,-1.508393139E-1
3.387497255E0,8.688823700E0,-4.070267081E-1,-1.819648892E-1
3.389498588E0,8.669669151E0,-4.166038036E-1,-1.867534369E-1
3.391499921E0,8.643332481E0,-3.998439014E-1,-1.987248063E-1
3.393501287E0,8.609811783E0,-3.974496126E-1,-1.939362586E-1
3.395502620E0,8.607418060E0,-3.854782581E-1,-1.987248063E-1
3.397506553E0,8.571503639E0,-3.878725171E-1,-2.250618339E-1
3.399507919E0,8.557138443E0,-4.046324492E-1,-2.537931204E-1
3.401509252E0,8.535589218E0,-3.878725171E-1,-2.849186957E-1
3.403510585E0,8.535589218E0,-3.878725171E-1,-3.495641351E-1
3.405511951E0,8.521224022E0,-3.806896806E-1,-3.878725171E-1
3.407513517E0,8.492492676E0,-3.663240373E-1,-3.974496126E-1
3.409514850E0,8.463761330E0,-3.256213665E-1,-4.309694767E-1
3.411516183E0,8.437424660E0,-3.136500120E-1,-4.453351200E-1
3.413517516E0,8.401510239E0,-3.136500120E-1,-4.620950520E-1
3.415518849E0,8.377567291E0,-2.873129845E-1,-4.908263385E-1
3.417520182E0,8.365595818E0,-2.753416002E-1,-4.908263385E-1
3.419521515E0,8.346442223E0,-2.513988614E-1,-5.147690773E-1
3.421522881E0,8.310527802E0,-2.298503816E-1,-5.147690773E-1
3.423524214E0,8.279402733E0,-2.298503816E-1,-5.267404318E-1
3.425525547E0,8.255459785E0,-2.250618339E-1,-5.123748183E-1
3.427527113E0,8.229122162E0,-2.059076279E-1,-5.363175869E-1
3.429528446E0,8.195602417E0,-1.867534369E-1,-5.554717779E-1
3.431530512E0,8.159688950E0,-1.699935049E-1,-5.770202279E-1
3.433531878E0,8.145322800E0,-1.556278616E-1,-5.794144869E-1
3.435533211E0,8.104619980E0,-1.652049571E-1,-6.129343510E-1
3.437534544E0,8.068706512E0,-1.580221355E-1,-6.368771195E-1
3.439535910E0,8.042368889E0,-1.556278616E-1,-6.488484740E-1
3.441537243E0,8.001666069E0,-1.388679445E-1,-6.440598965E-1
3.443538576E0,7.956175327E0,-1.460507661E-1,-6.608198285E-1
3.445539942E0,7.941809654E0,-1.556278616E-1,-6.727912426E-1
3.447541042E0,7.881952763E0,-1.723877788E-1,-7.063110471E-1
3.449542375E0,7.841249943E0,-1.580221355E-1,-7.110996246E-1
3.451543741E0,7.810124397E0,-1.819648892E-1,-7.494080067E-1
3.453545074E0,7.786181450E0,-1.771763414E-1,-7.877163887E-1
3.455546407E0,7.759844780E0,-1.723877788E-1,-8.236305118E-1
3.459549406E0,7.685622215E0,-1.915419847E-1,-9.577099085E-1
3.461550739E0,7.666468143E0,-1.795706153E-1,-9.768640995E-1
3.463552105E0,7.625765324E0,-1.699935049E-1,-1.058269501E0
3.465553438E0,7.592245579E0,-1.747820675E-1,-1.118126392E0
3.467554771E0,7.580274105E0,-1.675992310E-1,-1.142069101E0
3.469556137E0,7.568302631E0,-1.675992310E-1,-1.189954638E0
3.471557470E0,7.532388687E0,-1.747820675E-1,-1.288119793E0
3.473558803E0,7.515628815E0,-1.795706153E-1,-1.324033976E0
3.475560169E0,7.496474266E0,-1.699935049E-1,-1.355159521E0
3.477561502E0,7.496474266E0,-1.747820675E-1,-1.362342358E0
3.479562835E0,7.448588848E0,-1.891477108E-1,-1.429382086E0
3.481564168E0,7.427040577E0,-1.891477108E-1,-1.479661822E0
3.483565501E0,7.412674904E0,-1.723877788E-1,-1.482056141E0
3.485566834E0,7.369577885E0,-1.891477108E-1,-1.532335877E0
3.487567967E0,7.386337757E0,-1.771763414E-1,-1.596981287E0
3.489569300E0,7.383943558E0,-1.675992310E-1,-1.642472506E0
3.491569933E0,7.388731956E0,-1.771763414E-1,-1.687963724E0
3.493571266E0,7.400703430E0,-1.628106833E-1,-1.731060743E0
3.495572599E0,7.393520832E0,-1.604164094E-1,-1.735849261E0
3.497573965E0,7.381549358E0,-1.652049571E-1,-1.793311834E0
3.499575298E0,7.391126156E0,-1.580221355E-1,-1.812466025E0
3.501576631E0,7.381549358E0,-1.819648892E-1,-1.834014535E0
3.503577997E0,7.357606411E0,-1.652049571E-1,-1.831620216E0
3.505579330E0,7.348029613E0,-1.604164094E-1,-1.798100352E0
3.507580663E0,7.352818012E0,-1.245022863E-1,-1.757397652E0
3.509582029E0,7.340846539E0,-1.053480953E-1,-1.716695070E0
3.511583129E0,7.336058140E0,-8.379961550E-2,-1.699935079E0
3.513584462E0,7.340846539E0,-9.337671846E-2,-1.644866824E0
3.515585828E0,7.345634937E0,-8.619388938E-2,-1.608952641E0
3.517587161E0,7.350423813E0,-9.098244458E-2,-1.601769805E0
3.521586960E0,7.412674904E0,-1.101366431E-1,-1.601769805E0
3.523588293E0,7.443800449E0,-1.245022863E-1,-1.589798450E0
3.525589626E0,7.503657341E0,-1.388679445E-1,-1.585009933E0
3.527590726E0,7.537177086E0,-1.436564922E-1,-1.599375606E0
3.529592059E0,7.592245579E0,-1.723877788E-1,-1.592192769E0
3.531593392E0,7.668862343E0,-1.939362586E-1,-1.580221415E0
3.533594758E0,7.709564686E0,-2.059076279E-1,-1.575432777E0
3.535596091E0,7.795758724E0,-2.274561077E-1,-1.575432777E0
3.537597424E0,7.858009815E0,-2.657645047E-1,-1.573038578E0
3.539598790E0,7.913078308E0,-2.944957912E-1,-1.565855742E0
3.541600123E0,7.968146324E0,-3.136500120E-1,-1.551490068E0
3.543601456E0,8.083071709E0,-3.759011328E-1,-1.537124395E0
3.545602822E0,8.138139725E0,-4.142095447E-1,-1.553884387E0
3.547604155E0,8.202785492E0,-4.405465722E-1,-1.541913033E0
3.549605488E0,8.250671387E0,-5.123748183E-1,-1.529941559E0
3.551606921E0,8.305739403E0,-5.411061049E-1,-1.539518714E0
3.553608254E0,8.391933441E0,-5.602602959E-1,-1.553884387E0
3.555609587E0,8.439818382E0,-5.698373914E-1,-1.577827096E0
3.557610920E0,8.506858826E0,-6.033572555E-1,-1.613741279E0
3.559612253E0,8.545166969E0,-6.153286099E-1,-1.668809533E0
3.561613619E0,8.547560692E0,-6.344828010E-1,-1.678386688E0
3.563615119E0,8.607418060E0,-6.488484740E-1,-1.774157643E0
3.565616452E0,8.614601135E0,-6.560313106E-1,-1.860351562E0
3.567617818E0,8.650514603E0,-6.488484740E-1,-1.891477108E0
3.569619884E0,8.645726204E0,-6.512427330E-1,-1.977671027E0
3.571621450E0,8.640937805E0,-6.201171875E-1,-2.047105074E0
3.573622816E0,8.638543129E0,-6.201171875E-1,-2.066259146E0
3.575624149E0,8.638543129E0,-5.961744189E-1,-2.145270348E0
3.577625482E0,8.636149406E0,-5.913859010E-1,-2.200338602E0
3.579626848E0,8.638543129E0,-5.674431324E-1,-2.255406857E0
3.581628181E0,8.624177933E0,-5.291347504E-1,-2.339206457E0
3.583629514E0,8.616994858E0,-5.004034638E-1,-2.391880512E0
3.585630880E0,8.564320564E0,-4.788549542E-1,-2.454131603E0
3.587632480E0,8.528407097E0,-4.381522834E-1,-2.533142805E0
3.589633813E0,8.499675751E0,-4.118152559E-1,-2.554691315E0
3.591635479E0,8.451789856E0,-3.591412306E-1,-2.592999697E0
3.593638979E0,8.415876389E0,-3.232271075E-1,-2.631308079E0
3.595640312E0,8.396721840E0,-2.992843390E-1,-2.667222023E0
3.597641678E0,8.353624344E0,-2.585816681E-1,-2.700742006E0
3.599643011E0,8.317710876E0,-2.394274771E-1,-2.707924843E0
3.601644344E0,8.272219658E0,-1.963305324E-1,-2.719896078E0
3.603645710E0,8.214756966E0,-1.604164094E-1,-2.739050388E0
3.605647043E0,8.188420296E0,-1.388679445E-1,-2.746233225E0
3.607648376E0,8.123774529E0,-1.125309169E-1,-2.753416061E0
3.609649742E0,8.054340363E0,-6.703969836E-2,-2.743839025E0
3.611650975E0,8.020820618E0,-4.788549617E-2,-2.734261751E0
3.613652308E0,7.929838181E0,-7.182824425E-3,-2.748627424E0
3.615653674E0,7.855615616E0,4.070267081E-2,-2.719896078E0
3.617655007E0,7.798152924E0,5.506832153E-2,-2.705530643E0
3.619656340E0,7.735901833E0,1.101366431E-1,-2.703136206E0
3.621657673E0,7.661679268E0,1.436564922E-1,-2.676799297E0
3.623658839E0,7.587456703E0,1.795706153E-1,-2.667222023E0
3.625660172E0,7.556331158E0,2.011190802E-1,-2.660039425E0
3.627661505E0,7.501263142E0,2.394274771E-1,-2.640885115E0
3.629662105E0,7.446194649E0,2.777358890E-1,-2.616942406E0
3.631663471E0,7.379155159E0,3.232271075E-1,-2.602576733E0
3.633664804E0,7.343240738E0,3.375927508E-1,-2.592999697E0
3.635666137E0,7.280989647E0,3.591412306E-1,-2.614548206E0
3.637667503E0,7.240286827E0,3.878725171E-1,-2.600182533E0
3.639668836E0,7.221132755E0,4.094209969E-1,-2.604970932E0
3.641670169E0,7.156487465E0,4.501236677E-1,-2.633702278E0
3.643671535E0,7.120573044E0,4.764606953E-1,-2.648067951E0
3.645672868E0,7.091842175E0,4.764606953E-1,-2.664827824E0
3.647674201E0,7.041562080E0,4.620950520E-1,-2.676799297E0
3.649675567E0,7.022408009E0,4.549122155E-1,-2.669616461E0
3.651676600E0,6.950579643E0,4.525179267E-1,-2.672010660E0
3.655677132E0,6.878751755E0,4.405465722E-1,-2.688770533E0
3.657678465E0,6.833260536E0,4.477293789E-1,-2.715107679E0
3.659679798E0,6.823683262E0,4.142095447E-1,-2.777358770E0
3.661681164E0,6.828471661E0,4.142095447E-1,-2.810878515E0
3.663682497E0,6.809317589E0,3.878725171E-1,-2.822849989E0
3.665683830E0,6.816500187E0,4.022381604E-1,-2.868341208E0
3.667685196E0,6.816500187E0,4.046324492E-1,-2.889889717E0
3.669686529E0,6.804529190E0,3.878725171E-1,-2.918621063E0
3.671687862E0,6.811711788E0,3.711125851E-1,-2.937775135E0
3.673689228E0,6.814105988E0,3.567469418E-1,-2.968900681E0
3.675690561E0,6.826077461E0,3.471698463E-1,-3.019180536E0
3.677691894E0,6.826077461E0,3.471698463E-1,-3.026363373E0
3.679693260E0,6.859597206E0,3.256213665E-1,-3.057488918E0
3.681694593E0,6.919454098E0,3.112557232E-1,-3.057488918E0
3.683695926E0,6.933819771E0,3.256213665E-1,-3.057488918E0
3.685697292E0,6.950579643E0,3.064671755E-1,-3.047911882E0
3.687698825E0,6.974522591E0,2.968900800E-1,-3.074248791E0
3.689700158E0,6.979310989E0,3.040728867E-1,-3.083826065E0
3.691701491E0,7.015225410E0,2.992843390E-1,-3.141288519E0
3.693702824E0,7.046350956E0,3.064671755E-1,-3.179596901E0
3.695704157E0,7.079870701E0,3.016786277E-1,-3.191568375E0
3.697705490E0,7.106207848E0,3.016786277E-1,-3.244242430E0
3.699706823E0,7.118178844E0,2.992843390E-1,-3.261002302E0
3.701708189E0,7.132544518E0,2.921015322E-1,-3.311282158E0
3.703709522E0,7.163670063E0,2.992843390E-1,-3.395081758E0
3.705710855E0,7.185218811E0,3.040728867E-1,-3.423812866E0
3.707712221E0,7.211555958E0,3.304099143E-1,-3.483669758E0
3.709713554E0,7.242681503E0,3.423812985E-1,-3.560286522E0
3.711714887E0,7.252258301E0,3.423812985E-1,-3.584229469E0
3.713716253E0,7.285778046E0,3.687183261E-1,-3.644086361E0
3.715717586E0,7.316903591E0,3.759011328E-1,-3.689577579E0
3.717718919E0,7.331269264E0,3.926610649E-1,-3.694365978E0
3.719720285E0,7.405491829E0,4.118152559E-1,-3.689577579E0
3.721721618E0,7.398309231E0,4.094209969E-1,-3.703943014E0
3.723722951E0,7.446194649E0,4.381522834E-1,-3.703943014E0
3.725724317E0,7.460560322E0,4.477293789E-1,-3.703943014E0
3.727725650E0,7.486897469E0,4.477293789E-1,-3.718308687E0
3.729726983E0,7.525205612E0,4.309694767E-1,-3.735068798E0
3.731728349E0,7.558725357E0,4.405465722E-1,-3.778165579E0
3.733729682E0,7.580274105E0,4.166038036E-1,-3.804502726E0
3.735731015E0,7.599428177E0,3.950553536E-1,-3.838022470E0
3.737732381E0,7.668862343E0,3.926610649E-1,-3.888302326E0
3.739733714E0,7.695199013E0,4.022381604E-1,-3.905062199E0
3.741735047E0,7.735901833E0,3.735068738E-1,-3.969707727E0
3.743736413E0,7.786181450E0,3.447755575E-1,-4.027170181E0
3.745737746E0,7.824490070E0,3.375927508E-1,-4.082238674E0
3.747738879E0,7.881952763E0,3.351984620E-1,-4.151672363E0
3.749740245E0,7.908289909E0,3.208328187E-1,-4.182797909E0
3.751741578E0,7.980117798E0,2.968900800E-1,-4.245049000E0
3.753742911E0,8.039975166E0,2.801301479E-1,-4.304905891E0
3.755744644E0,8.095043182E0,2.657645047E-1,-4.336031914E0
3.757745977E0,8.176448822E0,2.178790122E-1,-4.393494129E0
3.759747310E0,8.243488312E0,2.106961906E-1,-4.434196949E0
3.761748643E0,8.279402733E0,1.963305324E-1,-4.460534096E0
3.763749976E0,8.389538765E0,1.747820675E-1,-4.503631115E0
3.765751309E0,8.485309601E0,1.532335877E-1,-4.517996788E0
3.767752642E0,8.528407097E0,1.460507661E-1,-4.539545059E0
3.769753975E0,8.628966331E0,1.388679445E-1,-4.587430477E0
3.771755341E0,8.657697678E0,1.412622184E-1,-4.618556023E0
3.773756674E0,8.736708641E0,1.292908341E-1,-4.635315895E0
3.775758007E0,8.825297356E0,1.388679445E-1,-4.640104771E0
3.777759373E0,8.877970695E0,1.436564922E-1,-4.640104771E0
3.779760706E0,8.954587936E0,1.436564922E-1,-4.616161823E0
3.781762039E0,9.033598900E0,1.652049571E-1,-4.618556023E0
3.783763405E0,9.067118645E0,1.843591630E-1,-4.618556023E0
3.785764738E0,9.119792938E0,2.130904645E-1,-4.597007751E0
3.787769604E0,9.167677879E0,2.585816681E-1,-4.604190350E0
3.789770970E0,9.186832428E0,2.705530524E-1,-4.589824677E0
3.791772303E0,9.249083519E0,3.064671755E-1,-4.553910732E0
3.793773636E0,9.284997940E0,3.782954216E-1,-4.544333458E0
3.795775002E0,9.318517685E0,3.998439014E-1,-4.532361984E0
3.797776335E0,9.342460632E0,4.549122155E-1,-4.570670605E0
3.799777668E0,9.347249031E0,4.812492430E-1,-4.594613552E0
3.801779768E0,9.399923325E0,5.291347504E-1,-4.676018715E0
3.803781101E0,9.459779739E0,6.009629965E-1,-4.771789551E0
3.805782434E0,9.474145889E0,6.177229285E-1,-4.807703972E0
3.807783800E0,9.536396980E0,6.991282701E-1,-4.893897533E0
3.809785133E0,9.603436470E0,7.613793612E-1,-4.915446281E0
3.811786466E0,9.601041794E0,8.068706393E-1,-4.903474808E0
3.813787832E0,9.651321411E0,8.523618579E-1,-4.884320736E0
3.815788798E0,9.689630508E0,9.194015265E-1,-4.848406315E0
3.817790131E0,9.723150253E0,9.505270720E-1,-4.819674969E0
3.819791497E0,9.754275322E0,9.720755816E-1,-4.781366825E0
3.821792863E0,9.744698524E0,9.840469360E-1,-4.795732498E0
3.823794196E0,9.735121727E0,1.010383964E0,-4.783761024E0
3.825795562E0,9.730332375E0,1.019961119E0,-4.757423878E0
3.827797628E0,9.735121727E0,1.012778282E0,-4.747847080E0
3.829798961E0,9.703995705E0,1.010383964E0,-4.743058205E0
3.831800294E0,9.663292885E0,9.816526771E-1,-4.740664005E0
3.833801394E0,9.644139290E0,9.792584181E-1,-4.759818554E0
3.835802727E0,9.629773140E0,9.936240315E-1,-4.788549423E0
3.837804060E0,9.579493523E0,9.960182905E-1,-4.846012115E0
3.839805393E0,9.562733650E0,1.005595446E0,-4.855589390E0
3.841806759E0,9.505270958E0,1.000806928E0,-4.869955063E0
3.843808092E0,9.490905762E0,9.720755816E-1,-4.850800991E0
3.845809425E0,9.414288521E0,9.577099085E-1,-4.826858044E0
3.849808591E0,9.304151535E0,8.763045669E-1,-4.802915096E0
3.851809924E0,9.246688843E0,8.260248303E-1,-4.805309772E0
3.853811290E0,9.172467232E0,7.661679387E-1,-4.817280769E0
3.855813390E0,9.146129608E0,7.422251701E-1,-4.834040642E0
3.857814723E0,9.074301720E0,7.158881426E-1,-4.848406315E0
3.859816089E0,9.028810501E0,6.871568561E-1,-4.881926537E0
3.861816689E0,9.016839027E0,6.943396926E-1,-4.893897533E0
3.863818022E0,8.913885117E0,6.680026650E-1,-4.913052082E0
3.865819388E0,8.861210823E0,6.751855016E-1,-4.922628880E0
3.867820721E0,8.827691078E0,6.823683381E-1,-4.929811954E0
3.869823087E0,8.789382935E0,6.751855016E-1,-4.920234680E0
3.871824453E0,8.770228386E0,6.751855016E-1,-4.946571827E0
3.873825786E0,8.734314919E0,6.560313106E-1,-4.965725899E0
3.875827119E0,8.707977295E0,6.560313106E-1,-5.008822918E0
3.877828485E0,8.688823700E0,6.560313106E-1,-5.039948463E0
3.879829818E0,8.686429024E0,6.368771195E-1,-5.095016956E0
3.881831384E0,8.664880753E0,6.512427330E-1,-5.145296574E0
3.883832750E0,8.652909279E0,6.536370516E-1,-5.162056446E0
3.885834083E0,8.645726204E0,6.536370516E-1,-5.169239521E0
3.887834683E0,8.650514603E0,6.320885420E-1,-5.221913338E0
3.889836049E0,8.657697678E0,6.273000240E-1,-5.231490612E0
3.891837382E0,8.688823700E0,6.273000240E-1,-5.245856285E0
3.893838948E0,8.710371971E0,6.273000240E-1,-5.253038883E0
3.895840314E0,8.729525566E0,6.416656375E-1,-5.279376030E0
3.897841647E0,8.770228386E0,6.368771195E-1,-5.305713177E0
3.899842980E0,8.786988258E0,6.560313106E-1,-5.312895775E0
3.901844313E0,8.801354408E0,6.608198285E-1,-5.344021320E0
3.903845646E0,8.808537483E0,6.560313106E-1,-5.370358467E0
3.905846979E0,8.844450951E0,6.656084061E-1,-5.394300938E0
3.907848312E0,8.863605499E0,6.560313106E-1,-5.435003757E0
3.909849645E0,8.892336845E0,6.488484740E-1,-5.490072250E0
3.911850978E0,8.913885117E0,6.344828010E-1,-5.523591995E0
3.913852311E0,8.928250313E0,6.440598965E-1,-5.557111740E0
3.915852877E0,8.968953133E0,6.033572555E-1,-5.566689014E0
3.917854977E0,8.968953133E0,6.033572555E-1,-5.612180233E0
3.919856310E0,8.997684479E0,5.530774593E-1,-5.614574432E0
3.921857643E0,9.019232750E0,5.219519138E-1,-5.650488377E0
3.923859009E0,9.038387299E0,4.549122155E-1,-5.648094177E0
3.925863842E0,9.052753448E0,4.309694767E-1,-5.650488377E0
3.927865175E0,9.081484795E0,4.046324492E-1,-5.652883053E0
3.929865508E0,9.126976013E0,3.782954216E-1,-5.674431324E0
3.931866608E0,9.134158134E0,3.495641351E-1,-5.707951069E0
3.933867941E0,9.160495758E0,3.447755575E-1,-5.691191196E0
3.935869307E0,9.217958450E0,3.280156553E-1,-5.710345268E0
3.937871373E0,9.268238068E0,2.825244367E-1,-5.703162670E0
3.939872706E0,9.299363136E0,2.777358890E-1,-5.710345268E0
3.941874539E0,9.366402626E0,2.370332032E-1,-5.717528343E0
3.943875872E0,9.426259995E0,2.274561077E-1,-5.712739468E0
3.945877305E0,9.445414543E0,2.059076279E-1,-5.731894016E0
3.947878671E0,9.490905762E0,2.466102988E-1,-5.746259689E0
3.949880004E0,9.519637108E0,2.370332032E-1,-5.770202160E0
3.951881170E0,9.574705124E0,2.681587934E-1,-5.760625362E0
3.953882536E0,9.598648071E0,2.777358890E-1,-5.794145107E0
3.955883869E0,9.605830193E0,2.849186957E-1,-5.820482254E0
3.957885202E0,9.613013268E0,3.136500120E-1,-5.827664852E0
3.959886568E0,9.622590065E0,3.759011328E-1,-5.846818924E0
3.961887901E0,9.629773140E0,3.902668059E-1,-5.858790398E0
3.963889234E0,9.620196342E0,4.285751879E-1,-5.885127544E0
3.965890600E0,9.632167816E0,4.549122155E-1,-5.887521744E0
3.967891933E0,9.615407944E0,4.812492430E-1,-5.906675816E0
3.969893266E0,9.615407944E0,5.243461728E-1,-5.935407162E0
3.971895466E0,9.613013268E0,5.387118459E-1,-5.949772835E0
3.973896799E0,9.624984741E0,5.746259689E-1,-5.944984436E0
3.975898132E0,9.620196342E0,6.225114465E-1,-5.949772835E0
3.977898732E0,9.601041794E0,6.320885420E-1,-5.968926907E0
3.979900065E0,9.589070320E0,6.320885420E-1,-5.973715782E0
3.981901398E0,9.560338974E0,6.536370516E-1,-5.968926907E0
3.983902731E0,9.531607628E0,6.847625971E-1,-5.966532707E0
3.987901930E0,9.510059357E0,6.847625971E-1,-5.971321583E0
3.989903263E0,9.500482559E0,6.919454336E-1,-5.964138508E0
3.991904829E0,9.459779739E0,6.751855016E-1,-5.968926907E0
3.993906195E0,9.445414543E0,6.703969240E-1,-5.973715782E0
3.995907528E0,9.421471596E0,6.512427330E-1,-5.976109982E0
3.997908128E0,9.407105446E0,6.105400920E-1,-5.964138508E0
3.999909494E0,9.392740250E0,6.009629965E-1,-5.954561234E0
4.001914860E0,9.359220505E0,5.865973234E-1,-5.942590237E0
4.003916193E0,9.340065956E0,5.458946824E-1,-5.973715782E0
4.005917459E0,9.337671280E0,5.387118459E-1,-5.985687256E0
4.007918792E0,9.275420189E0,5.291347504E-1,-6.007235527E0
4.009920125E0,9.237112045E0,5.147690773E-1,-6.045543671E0
4.011921658E0,9.232323647E0,4.956148863E-1,-6.057515144E0
4.013922991E0,9.196409225E0,4.764606953E-1,-6.098217964E0
4.015924324E0,9.194015503E0,4.597007632E-1,-6.110189438E0
4.017925690E0,9.170072556E0,4.597007632E-1,-6.148497581E0
4.019927023E0,9.160495758E0,4.525179267E-1,-6.184412003E0
4.021928356E0,9.143735886E0,4.453351200E-1,-6.191594601E0
4.023929722E0,9.146129608E0,4.620950520E-1,-6.241874218E0
4.025931055E0,9.155706406E0,4.836435020E-1,-6.258634567E0
4.027932388E0,9.160495758E0,4.764606953E-1,-6.256239891E0
4.029933754E0,9.155706406E0,4.764606953E-1,-6.294548512E0
4.031934254E0,9.150918007E0,4.980091453E-1,-6.311308384E0
4.033941520E0,9.131764412E0,5.219519138E-1,-6.349617004E0
4.035942920E0,9.103033066E0,5.195576549E-1,-6.363982677E0
4.037944253E0,9.115004539E0,5.195576549E-1,-6.371165276E0
4.039945586E0,9.115004539E0,5.363175869E-1,-6.399896622E0
4.041947452E0,9.134158134E0,5.267404318E-1,-6.435810566E0
4.043948785E0,9.155706406E0,5.171633363E-1,-6.483695984E0
4.045950118E0,9.158101082E0,5.243461728E-1,-6.500456333E0
4.047951451E0,9.196409225E0,5.315290093E-1,-6.495667458E0
4.049952784E0,9.203592300E0,5.267404318E-1,-6.510033131E0
4.051954750E0,9.239506721E0,5.363175869E-1,-6.517216206E0
4.053956083E0,9.280209541E0,5.458946824E-1,-6.514821529E0
4.055957416E0,9.320911407E0,5.530774593E-1,-6.531581879E0
4.057958782E0,9.397528648E0,5.746259689E-1,-6.536370277E0
4.059960248E0,9.447808266E0,5.842030644E-1,-6.543552876E0
4.063958180E0,9.524425507E0,5.602602959E-1,-6.560312748E0
4.065959513E0,9.553156853E0,5.530774593E-1,-6.569890022E0
4.067961513E0,9.608224869E0,5.219519138E-1,-6.577073097E0
4.069962879E0,9.663292885E0,5.147690773E-1,-6.591438770E0
4.071964212E0,9.680052757E0,5.099805593E-1,-6.589044094E0
4.073965545E0,9.727938652E0,5.267404318E-1,-6.612987041E0
4.075966911E0,9.768641472E0,5.387118459E-1,-6.636929989E0
4.077968244E0,9.792584419E0,5.339232683E-1,-6.632141113E0
4.079969577E0,9.845257759E0,5.363175869E-1,-6.636929989E0
4.081970943E0,9.885960579E0,5.243461728E-1,-6.629746914E0
4.083972276E0,9.895537376E0,5.099805593E-1,-6.648900986E0
4.085973609E0,9.948211670E0,4.980091453E-1,-6.660872459E0
4.087974975E0,9.993702888E0,5.123748183E-1,-6.653689861E0
4.089976308E0,1.002482891E1,5.075862408E-1,-6.660872459E0
4.091977641E0,1.005834866E1,5.147690773E-1,-6.682421207E0
4.095974374E0,1.014214802E1,5.411061049E-1,-6.675238132E0
4.097975707E0,1.016609097E1,5.315290093E-1,-6.660872459E0
4.099977173E0,1.018045616E1,5.458946824E-1,-6.644112587E0
4.101978006E0,1.022115898E1,5.674431324E-1,-6.663266659E0
4.103979339E0,1.023073673E1,5.554717779E-1,-6.677632332E0
4.105980705E0,1.025467873E1,5.626545548E-1,-6.670449734E0
4.107982038E0,1.024031353E1,5.889915824E-1,-6.677632332E0
4.109983371E0,1.024749660E1,6.009629965E-1,-6.706363678E0
4.111984104E0,1.023791885E1,5.961744189E-1,-6.715940952E0
4.113985170E0,1.025946712E1,5.794144869E-1,-6.742278099E0
4.115986503E0,1.028819847E1,5.818088055E-1,-6.761432171E0
4.117987836E0,1.027622795E1,5.722316504E-1,-6.790163517E0
4.119989036E0,1.028341007E1,5.650488734E-1,-6.797346115E0
4.121990369E0,1.027143860E1,5.674431324E-1,-6.811711788E0
4.123991702E0,1.026186180E1,5.578660369E-1,-6.792557716E0
4.125993035E0,1.025707340E1,5.411061049E-1,-6.794951916E0
4.127993535E0,1.024270725E1,5.411061049E-1,-6.790163517E0
4.129994868E0,1.021876526E1,5.171633363E-1,-6.804529190E0
4.131996201E0,1.022355366E1,5.051919818E-1,-6.818894863E0
4.133997567E0,1.021876526E1,5.123748183E-1,-6.814105988E0
4.135998900E0,1.021637058E1,5.004034638E-1,-6.811711788E0
4.138000233E0,1.019961071E1,4.788549542E-1,-6.802134514E0
4.140001599E0,1.021637058E1,4.836435020E-1,-6.782980442E0
4.142002932E0,1.019003391E1,5.195576549E-1,-6.754249096E0
4.144004265E0,1.018285084E1,5.195576549E-1,-6.720729351E0
4.146005631E0,1.016130257E1,5.243461728E-1,-6.665660858E0
4.148006964E0,1.009905148E1,5.099805593E-1,-6.641718388E0
4.150008297E0,1.006313705E1,5.243461728E-1,-6.634535313E0
4.152009663E0,1.002004051E1,5.315290093E-1,-6.598621368E0
4.154010996E0,9.964971542E0,5.291347504E-1,-6.562707424E0
4.156012329E0,9.933846474E0,5.674431324E-1,-6.536370277E0
4.158013695E0,9.893143654E0,5.698373914E-1,-6.510033131E0
4.160014928E0,9.840469360E0,5.961744189E-1,-6.490879059E0
4.162016261E0,9.785401344E0,5.937801600E-1,-6.469330311E0
4.164017627E0,9.759063721E0,6.225114465E-1,-6.471724987E0
4.166019260E0,9.711178780E0,6.512427330E-1,-6.476513386E0
4.168020593E0,9.668081284E0,6.919454336E-1,-6.478907585E0
4.170021959E0,9.632167816E0,7.134938836E-1,-6.447782040E0
4.172024025E0,9.601041794E0,7.087053657E-1,-6.431022167E0
4.174025625E0,9.562733650E0,7.230709791E-1,-6.404685020E0
4.176026991E0,9.522030830E0,7.661679387E-1,-6.363982677E0
4.178028324E0,9.517242432E0,7.709565163E-1,-6.349617004E0
4.180029657E0,9.471751213E0,8.284190893E-1,-6.311308384E0
4.182031023E0,9.426259995E0,8.523618579E-1,-6.277788639E0
4.184032356E0,9.411893845E0,8.451790214E-1,-6.246663094E0
4.186033689E0,9.356825829E0,8.882759809E-1,-6.217931747E0
4.188035222E0,9.325700760E0,8.906702399E-1,-6.196382999E0
4.190039188E0,9.277814865E0,8.930644989E-1,-6.165257454E0
4.192040521E0,9.239506721E0,9.002473354E-1,-6.131737709E0
4.194041854E0,9.213169098E0,9.050358534E-1,-6.098217964E0
4.196043187E0,9.148524284E0,9.026415944E-1,-6.045543671E0
4.198044553E0,9.076695442E0,8.858816624E-1,-6.035966873E0
4.200045886E0,9.057541847E0,9.002473354E-1,-6.035966873E0
4.202047219E0,8.980924606E0,9.074301720E-1,-5.995264053E0
4.204048585E0,8.949799538E0,8.954587579E-1,-5.983292580E0
4.206049918E0,8.945011139E0,8.667274714E-1,-5.964138508E0
4.208051251E0,8.956981659E0,8.451790214E-1,-5.956955910E0
4.210052617E0,8.942616463E0,8.356019258E-1,-5.954561234E0
4.212053950E0,8.935433388E0,8.308133483E-1,-5.956955910E0
4.214055283E0,8.942616463E0,8.068706393E-1,-5.952167034E0
4.216056649E0,8.961771011E0,7.877163887E-1,-5.949772835E0
4.218057982E0,8.971347809E0,7.661679387E-1,-5.954561234E0
4.220059315E0,9.007262230E0,7.565908432E-1,-5.947378635E0
4.222060681E0,9.014444351E0,7.661679387E-1,-5.933012962E0
4.224062014E0,9.047964096E0,7.494080067E-1,-5.940196037E0
4.226063047E0,9.081484795E0,7.350423932E-1,-5.928224564E0
4.228064413E0,9.100638390E0,7.230709791E-1,-5.904281616E0
4.230065746E0,9.143735886E0,7.063110471E-1,-5.904281616E0
4.232066346E0,9.198803902E0,6.799740195E-1,-5.904281616E0
4.234067779E0,9.203592300E0,6.823683381E-1,-5.897099018E0
4.236069412E0,9.246688843E0,6.584255695E-1,-5.904281616E0
4.238070745E0,9.275420189E0,6.632141471E-1,-5.897099018E0
4.240072778E0,9.337671280E0,6.464542150E-1,-5.897099018E0
4.242074111E0,9.399923325E0,6.368771195E-1,-5.892310143E0
4.244075444E0,9.421471596E0,6.201171875E-1,-5.899493217E0
4.246076810E0,9.483722687E0,6.249057055E-1,-5.877944469E0
4.248078143E0,9.526819229E0,6.273000240E-1,-5.880339146E0
4.252078209E0,9.610619545E0,6.296942830E-1,-5.837242126E0
4.254079542E0,9.663292885E0,6.153286099E-1,-5.830059052E0
4.256080875E0,9.684841156E0,5.961744189E-1,-5.808510780E0
4.258082208E0,9.718361855E0,6.081457734E-1,-5.767807961E0
4.260084274E0,9.727938652E0,5.913859010E-1,-5.753442287E0
4.262085607E0,9.747093201E0,6.081457734E-1,-5.715134144E0
4.264086940E0,9.766246796E0,5.842030644E-1,-5.667248249E0
4.266088273E0,9.797372818E0,5.842030644E-1,-5.631334305E0
4.268089639E0,9.809344292E0,5.985686779E-1,-5.602602959E0
4.270090972E0,9.828497887E0,5.913859010E-1,-5.547534943E0
4.272092305E0,9.847652435E0,5.770202279E-1,-5.523591995E0
4.274093671E0,9.859623909E0,5.698373914E-1,-5.463735104E0
4.276095004E0,9.878777504E0,5.435003638E-1,-5.418243885E0
4.278096337E0,9.883566856E0,5.554717779E-1,-5.382329941E0
4.280097703E0,9.857229233E0,5.315290093E-1,-5.346415520E0
4.282099036E0,9.852440834E0,5.099805593E-1,-5.312895775E0
4.284100369E0,9.845257759E0,4.932205975E-1,-5.269798756E0
4.286101735E0,9.862017632E0,4.884320498E-1,-5.221913338E0
4.288103068E0,9.857229233E0,4.788549542E-1,-5.200365067E0
4.290104401E0,9.852440834E0,4.788549542E-1,-5.152479172E0
4.292105767E0,9.857229233E0,4.501236677E-1,-5.114171028E0
4.294107033E0,9.842864037E0,4.620950520E-1,-5.075862408E0
4.296108066E0,9.809344292E0,4.573064744E-1,-5.032765865E0
4.298110266E0,9.792584419E0,4.573064744E-1,-4.989668846E0
4.300110932E0,9.785401344E0,4.477293789E-1,-4.956148624E0
4.302112265E0,9.766246796E0,4.453351200E-1,-4.917840481E0
4.304118498E0,9.742303848E0,4.357580245E-1,-4.879531860E0
4.306119831E0,9.744698524E0,4.357580245E-1,-4.857983589E0
4.308121164E0,9.754275322E0,4.620950520E-1,-4.848406315E0
4.310122530E0,9.739910126E0,4.549122155E-1,-4.829252243E0
4.312123863E0,9.727938652E0,4.309694767E-1,-4.790944099E0
4.314125196E0,9.715967178E0,4.357580245E-1,-4.747847080E0
4.316126562E0,9.727938652E0,4.405465722E-1,-4.738269806E0
4.318127895E0,9.730332375E0,4.573064744E-1,-4.695172787E0
4.320128495E0,9.739910126E0,4.453351200E-1,-4.654470444E0
4.322129861E0,9.754275322E0,4.501236677E-1,-4.616161823E0
