"Time (s)","Gyroscope x (rad/s)","Gyroscope y (rad/s)","Gyroscope z (rad/s)"
0.000000000E0,4.180761799E-2,2.366308868E-2,-8.265862614E-2
2.001000000E-3,3.997502103E-2,6.214759871E-2,-7.899343222E-2
4.002333000E-3,3.997502103E-2,9.757778049E-2,-7.410650700E-2
6.003583000E-3,3.692069650E-2,1.165146008E-1,-7.471737266E-2
8.004783000E-3,3.630983084E-2,1.476687342E-1,-7.227391005E-2
1.000478300E-2,3.814242408E-2,1.800445914E-1,-7.166304439E-2
1.200606800E-2,4.058588669E-2,1.989814192E-1,-7.593910396E-2
1.400731800E-2,4.180761799E-2,2.258594781E-1,-7.777170092E-2
1.602998400E-2,4.852713272E-2,2.447963059E-1,-7.349564135E-2
1.803128400E-2,5.280319229E-2,2.570136189E-1,-7.777170092E-2
2.003255600E-2,6.318789721E-2,2.771721482E-1,-8.204775304E-2
2.203388900E-2,6.685309857E-2,2.857242823E-1,-8.143688738E-2
2.403519600E-2,8.029212803E-2,2.997741699E-1,-8.143688738E-2
2.603655300E-2,9.678549320E-2,3.150458038E-1,-8.082602918E-2
2.803788600E-2,9.922894835E-2,3.290956914E-1,-7.777170092E-2
3.003919800E-2,1.108353883E-1,3.413130045E-1,-7.838255912E-2
3.204055000E-2,1.206092387E-1,3.596389890E-1,-6.983045489E-2
3.404188300E-2,1.242744252E-1,3.700236678E-1,-6.677612662E-2
3.604319800E-2,1.340482682E-1,3.865170181E-1,-6.311093271E-2
3.804454800E-2,1.450438350E-1,4.011777937E-1,-5.822401121E-2
4.004588100E-2,1.432112455E-1,4.054538608E-1,-5.394795164E-2
4.204719900E-2,1.535959691E-1,4.152277112E-1,-5.333708972E-2
4.404854600E-2,1.517633647E-1,4.286667407E-1,-5.150449276E-2
4.604987900E-2,1.542068124E-1,4.451600909E-1,-4.111978039E-2
4.805119900E-2,1.456547081E-1,4.665403664E-1,-3.195680305E-2
5.005254500E-2,1.407677978E-1,4.708164334E-1,-3.012420796E-2
5.205387800E-2,1.383243203E-1,4.928075969E-1,-1.851776801E-2
5.405519900E-2,1.242744252E-1,5.160204172E-1,-1.973949932E-2
5.605626700E-2,1.187766418E-1,5.245725513E-1,-1.485257689E-2
5.805760000E-2,1.004506871E-1,5.465637445E-1,-8.133059368E-3
6.005893300E-2,9.189856797E-2,5.655005574E-1,-3.857003292E-3
6.206289900E-2,8.334644884E-2,5.752744079E-1,-2.635272685E-3
6.406423200E-2,7.418347150E-2,5.936003327E-1,3.473379882E-3
6.606556500E-2,7.357260585E-2,6.082611084E-1,4.084245302E-3
6.807049800E-2,5.402491987E-2,6.302522421E-1,1.263635792E-2
7.007209800E-2,4.547280818E-2,6.577411890E-1,1.996674202E-2
7.207343100E-2,4.058588669E-2,6.638498306E-1,2.302106842E-2
7.407479700E-2,2.653598599E-2,6.907278895E-1,3.279491141E-2
7.807106300E-2,1.187522057E-2,7.212711573E-1,3.768183663E-2
8.007242900E-2,2.101376420E-3,7.420405746E-1,4.195788875E-2
8.207376200E-2,-1.133765932E-2,7.567013502E-1,4.562308267E-2
8.407522800E-2,-1.561371610E-2,7.634208798E-1,4.928827286E-2
8.607629400E-2,-1.805717684E-2,7.756381631E-1,4.623394832E-2
8.807762700E-2,-3.088534810E-2,7.921316028E-1,5.112086982E-2
9.007872700E-2,-3.271793947E-2,7.976293564E-1,5.478606001E-2
9.208006000E-2,-3.760486469E-2,8.098466992E-1,5.356433243E-2
9.408139300E-2,-4.188092053E-2,8.122900724E-1,5.356433243E-2
9.608275900E-2,-4.798957333E-2,8.183987141E-1,5.234259740E-2
9.808409200E-2,-4.921130463E-2,8.269508481E-1,6.028384715E-2
1.000854250E-1,-4.982217029E-2,8.238965273E-1,5.722952262E-2
1.020867910E-1,-5.226562917E-2,8.226748109E-1,5.051000044E-2
1.040881240E-1,-5.043303221E-2,8.220639825E-1,5.417519435E-2
1.060892240E-1,-4.554611072E-2,8.196204901E-1,5.234259740E-2
1.080962900E-1,-4.798957333E-2,8.202313781E-1,5.234259740E-2
1.100987900E-1,-4.921130463E-2,8.135118484E-1,4.562308267E-2
1.121001230E-1,-4.554611072E-2,8.129010201E-1,4.379048571E-2
1.141014890E-1,-4.493524879E-2,8.043488860E-1,4.134702682E-2
1.161030890E-1,-4.127005860E-2,7.994619608E-1,3.829269856E-2
1.181044220E-1,-3.516140208E-2,7.860229015E-1,3.218404949E-2
1.201057880E-1,-2.599842474E-2,7.780816555E-1,2.607539296E-2
1.241056540E-1,-2.416582778E-2,7.695295215E-1,2.118847333E-2
1.261070200E-1,-1.805717684E-2,7.591448426E-1,1.935587637E-2
1.301061190E-1,-2.050063759E-2,7.554796934E-1,1.569068432E-2
1.321074850E-1,-2.111150324E-2,7.469275594E-1,1.263635792E-2
1.341088180E-1,-2.355496399E-2,7.469275594E-1,1.141462848E-2
1.361101510E-1,-2.783101983E-2,7.420405746E-1,8.971166797E-3
1.381115170E-1,-2.538755909E-2,7.432623506E-1,1.019289810E-2
1.401128500E-1,-3.393967450E-2,7.389862537E-1,7.749436423E-3
1.421141830E-1,-3.882659599E-2,7.237146497E-1,1.141462848E-2
1.441154160E-1,-3.760486469E-2,7.255472541E-1,1.202549320E-2
1.461170160E-1,-4.004832357E-2,7.206603289E-1,1.263635792E-2
1.481183490E-1,-4.982217029E-2,7.151625156E-1,1.446895394E-2
1.501199490E-1,-4.921130463E-2,7.157734632E-1,1.263635792E-2
1.521212820E-1,-5.776341632E-2,7.151625156E-1,1.996674202E-2
1.541226820E-1,-6.448293477E-2,7.145516872E-1,1.996674202E-2
1.561240150E-1,-6.448293477E-2,7.121081948E-1,2.485366166E-2
1.581253480E-1,-6.936985999E-2,7.127190828E-1,2.729712427E-2
1.601266810E-1,-7.792197168E-2,7.121081948E-1,3.096231632E-2
1.621280140E-1,-8.036543429E-2,7.169951200E-1,2.912972122E-2
1.641293470E-1,-8.525235206E-2,7.218821049E-1,3.890356421E-2
1.661309470E-1,-8.403062075E-2,7.212711573E-1,4.195788875E-2
1.701267460E-1,-9.869138896E-2,7.334885001E-1,4.928827286E-2
1.721342460E-1,-1.066326350E-1,7.444840670E-1,5.356433243E-2
1.741355790E-1,-1.060217768E-1,7.481492758E-1,5.356433243E-2
1.761404450E-1,-1.139630228E-1,7.640317678E-1,5.539692566E-2
1.781418110E-1,-1.176282093E-1,7.719730139E-1,6.150557846E-2
1.801431440E-1,-1.182390749E-1,7.774708271E-1,6.517077237E-2
1.821444770E-1,-1.328998357E-1,7.964075804E-1,6.883595884E-2
1.841460430E-1,-1.286237836E-1,7.994619608E-1,7.127942145E-2
1.861473760E-1,-1.328998357E-1,8.141227365E-1,7.433374971E-2
1.881490090E-1,-1.383976340E-1,8.214531541E-1,7.311201841E-2
1.901503750E-1,-1.390084922E-1,8.373355865E-1,8.105327189E-2
1.921517080E-1,-1.390084922E-1,8.489420414E-1,7.860980183E-2
1.941528080E-1,-1.408410966E-1,8.599376082E-1,7.677720487E-2
1.961541740E-1,-1.383976340E-1,8.703223467E-1,7.983153313E-2
1.981555400E-1,-1.396193504E-1,8.800961375E-1,8.288586140E-2
2.001568730E-1,-1.390084922E-1,8.886482716E-1,8.044239879E-2
2.021582390E-1,-1.383976340E-1,9.051416516E-1,7.860980183E-2
2.041595720E-1,-1.371759027E-1,9.210240841E-1,7.799893618E-2
2.061609050E-1,-1.310672462E-1,9.314088225E-1,7.433374971E-2
2.081620050E-1,-1.359541565E-1,9.405718446E-1,7.433374971E-2
2.101633380E-1,-1.304563731E-1,9.503456354E-1,7.005769014E-2
2.121654040E-1,-1.316781193E-1,9.595086575E-1,6.883595884E-2
2.141667040E-1,-1.280129254E-1,9.766128659E-1,6.578163058E-2
2.161678700E-1,-1.255694628E-1,9.790563583E-1,6.761422753E-2
2.181692030E-1,-1.225151345E-1,9.863867164E-1,5.845125020E-2
2.201705690E-1,-1.194608063E-1,9.973822832E-1,5.356433243E-2
2.221719020E-1,-1.212934032E-1,1.006545305E0,5.234259740E-2
2.241766020E-1,-1.170173511E-1,1.013875723E0,4.623394832E-2
2.261779350E-1,-1.090760976E-1,1.023038626E0,4.195788875E-2
2.281790350E-1,-1.115195602E-1,1.026703835E0,4.134702682E-2
2.301803680E-1,-1.072435006E-1,1.034644961E0,3.707096726E-2
2.341769010E-1,-9.869138896E-2,1.043197155E0,2.607539296E-2
2.381760670E-1,-9.991311282E-2,1.053581953E0,2.241020277E-2
2.401771670E-1,-9.869138896E-2,1.059690595E0,1.813414507E-2
2.421785330E-1,-9.380446374E-2,1.062134027E0,1.752328128E-2
2.441798660E-1,-9.197186679E-2,1.067020893E0,1.569068432E-2
2.461811990E-1,-9.013927728E-2,1.067020893E0,1.446895394E-2
2.481822650E-1,-8.891753852E-2,1.075572968E0,1.507981960E-2
2.501835980E-1,-8.891753852E-2,1.076794744E0,1.202549320E-2
2.521849310E-1,-8.647408336E-2,1.081681609E0,1.141462848E-2
2.541865310E-1,-9.075013548E-2,1.095731616E0,1.080376282E-2
2.561878640E-1,-8.708494902E-2,1.098785877E0,1.141462848E-2
2.581891640E-1,-9.136100858E-2,1.107948899E0,1.507981960E-2
2.601905300E-1,-9.197186679E-2,1.111003160E0,1.446895394E-2
2.621918630E-1,-9.563706070E-2,1.122609615E0,1.813414507E-2
2.641931960E-1,-8.830668032E-2,1.124442220E0,2.118847333E-2
2.661945620E-1,-9.808052331E-2,1.135437846E0,1.935587637E-2
2.681961620E-1,-9.136100858E-2,1.139713883E0,1.996674202E-2
2.701974950E-1,-9.013927728E-2,1.147655129E0,2.179933712E-2
2.721981280E-1,-8.891753852E-2,1.157428980E0,2.607539296E-2
2.741994610E-1,-8.891753852E-2,1.163537621E0,3.035145067E-2
2.762009610E-1,-8.708494902E-2,1.175754905E0,2.851885371E-2
2.782023270E-1,-8.952841163E-2,1.181863666E0,2.912972122E-2
2.802068600E-1,-8.708494902E-2,1.191026568E0,3.707096726E-2
2.822081930E-1,-9.013927728E-2,1.207519889E0,4.073616117E-2
2.862075260E-1,-8.708494902E-2,1.229511142E0,4.562308267E-2
2.882090920E-1,-8.647408336E-2,1.232565403E0,4.928827286E-2
2.902104580E-1,-8.525235206E-2,1.245393515E0,4.928827286E-2
2.922117910E-1,-8.403062075E-2,1.256389141E0,5.356433243E-2
2.942131240E-1,-8.647408336E-2,1.264330387E0,5.539692566E-2
2.962144570E-1,-8.097629249E-2,1.266773820E0,5.967298150E-2
2.982157900E-1,-7.608937472E-2,1.279602051E0,6.822510064E-2
3.002173560E-1,-7.547850907E-2,1.279602051E0,7.189028710E-2
3.022186890E-1,-7.181331515E-2,1.283267260E0,7.799893618E-2
3.042200220E-1,-6.448293477E-2,1.280212879E0,7.860980183E-2
3.062213880E-1,-6.570466608E-2,1.275936842E0,7.738807797E-2
3.082227210E-1,-6.936985999E-2,1.275325894E0,8.166413009E-2
3.102264210E-1,-7.670024037E-2,1.274715066E0,7.983153313E-2
3.122277870E-1,-7.608937472E-2,1.275936842E0,7.738807797E-2
3.142288870E-1,-8.097629249E-2,1.277769446E0,8.471845835E-2
3.162302200E-1,-8.219803125E-2,1.272271633E0,8.288586140E-2
3.182315860E-1,-8.403062075E-2,1.269217253E0,7.860980183E-2
3.202329190E-1,-8.952841163E-2,1.261276126E0,7.983153313E-2
3.222342520E-1,-9.136100858E-2,1.262497783E0,7.677720487E-2
3.242356180E-1,-9.197186679E-2,1.255778313E0,7.677720487E-2
3.262367180E-1,-9.441532940E-2,1.248447895E0,7.677720487E-2
3.282380510E-1,-9.075013548E-2,1.243561029E0,7.738807797E-2
3.302394170E-1,-9.075013548E-2,1.234398007E0,7.860980183E-2
3.322407500E-1,-8.280888945E-2,1.225845933E0,8.105327189E-2
3.342420830E-1,-8.647408336E-2,1.224013329E0,8.044239879E-2
3.362434490E-1,-8.403062075E-2,1.217293859E0,8.044239879E-2
3.382455150E-1,-8.097629249E-2,1.216071963E0,8.288586140E-2
3.422457480E-1,-7.731110603E-2,1.202022076E0,9.082710743E-2
3.442470810E-1,-8.280888945E-2,1.200800419E0,9.632489830E-2
3.462484140E-1,-8.464148641E-2,1.198356986E0,1.006009504E-1
3.482498470E-1,-7.975456864E-2,1.188583136E0,1.030444205E-1
3.502511800E-1,-8.403062075E-2,1.186139703E0,1.054878756E-1
3.522525130E-1,-9.075013548E-2,1.179420114E0,1.152617186E-1
3.542538790E-1,-9.502620250E-2,1.177587509E0,1.164834499E-1
3.562552120E-1,-9.319360554E-2,1.172700524E0,1.219812408E-1
3.582565450E-1,-1.011348516E-1,1.172089696E0,1.293116212E-1
3.602579110E-1,-1.060217768E-1,1.164148569E0,1.305333525E-1
3.622592440E-1,-1.072435006E-1,1.165370226E0,1.372528672E-1
3.642603440E-1,-1.096869633E-1,1.161705136E0,1.421397924E-1
3.662616770E-1,-1.121304259E-1,1.165370226E0,1.439723819E-1
3.682630100E-1,-1.127412841E-1,1.164148569E0,1.531353593E-1
3.722633090E-1,-1.194608063E-1,1.164759398E0,1.604657471E-1
3.742648750E-1,-1.194608063E-1,1.173311472E0,1.665744036E-1
3.762662410E-1,-1.151847541E-1,1.168424606E0,1.720721871E-1
3.782675740E-1,-1.133521572E-1,1.167202830E0,1.763482541E-1
3.802689070E-1,-1.121304259E-1,1.163537621E0,1.867329627E-1
3.822702730E-1,-1.127412841E-1,1.162926793E0,1.855112165E-1
3.842713730E-1,-1.072435006E-1,1.158039808E0,1.903981417E-1
3.862729390E-1,-1.078543738E-1,1.162315965E0,1.879546791E-1
3.882743050E-1,-1.041891798E-1,1.162926793E0,1.965067834E-1
3.902756380E-1,-1.041891798E-1,1.164759398E0,1.977285296E-1
3.922769710E-1,-1.017457098E-1,1.172089696E0,2.013937235E-1
3.942783370E-1,-9.746965766E-2,1.180031061E0,2.062806338E-1
3.962796700E-1,-6.998071820E-2,1.222791553E0,2.136110216E-1
3.982869360E-1,-4.921130463E-2,1.246615410E0,2.233848721E-1
4.002883020E-1,-4.432438314E-2,1.255167484E0,2.294935137E-1
4.022889020E-1,-4.065919295E-2,1.231343627E0,2.276609242E-1
4.042902350E-1,-4.310265183E-2,1.191637397E0,2.197196782E-1
4.062916010E-1,-4.127005860E-2,1.173311472E0,2.209414095E-1
4.082928670E-1,-3.638313338E-2,1.137270331E0,2.221631259E-1
4.102942000E-1,-4.249178618E-2,1.129329205E0,2.166653425E-1
4.122955660E-1,-3.516140208E-2,1.114668489E0,2.209414095E-1
4.142968990E-1,-2.844188549E-2,1.101229429E0,2.246066034E-1
4.162982320E-1,-2.844188549E-2,1.100007653E0,2.270500660E-1
4.182993650E-1,-2.172236890E-2,1.088401198E0,2.258283198E-1
4.203004650E-1,-1.439198479E-2,1.063355684E0,2.276609242E-1
4.223017980E-1,-1.378112007E-2,1.064577460E0,2.294935137E-1
4.243041310E-1,-1.072679367E-2,1.060301423E0,2.270500660E-1
4.263054640E-1,-2.785545541E-3,1.063355684E0,2.264391929E-1
4.283067970E-1,-1.563815051E-3,1.069464326E0,2.221631259E-1
4.303081630E-1,4.544837400E-3,1.071907878E0,2.276609242E-1
4.323092630E-1,7.599163335E-3,1.069464326E0,2.307152599E-1
4.343105960E-1,1.492954604E-2,1.057247043E0,2.307152599E-1
4.363119290E-1,5.766567774E-3,1.057247043E0,2.203305364E-1
4.383132620E-1,2.687807137E-4,1.050527573E0,2.148327529E-1
4.403145950E-1,-3.420845314E-4,1.056025386E0,2.068915069E-1
4.423159280E-1,8.796459297E-4,1.067631841E0,2.111675590E-1
4.443174940E-1,8.796459297E-4,1.067631841E0,2.062806338E-1
4.463188600E-1,-8.894198574E-3,1.067631841E0,2.026154548E-1
4.483201930E-1,-1.439198479E-2,1.056636214E0,1.928416044E-1
4.503215260E-1,-1.744631119E-2,1.059079766E0,1.922307462E-1
4.523228920E-1,-2.538755909E-2,1.058468819E0,1.879546791E-1
4.543242250E-1,-3.455053642E-2,1.068242669E0,1.830677688E-1
4.563255580E-1,-3.332880884E-2,1.070075154E0,1.824568957E-1
4.603215910E-1,-4.004832357E-2,1.059079766E0,1.745156497E-1
4.623229240E-1,-5.104389787E-2,1.048694968E0,1.671852767E-1
4.643242900E-1,-5.776341632E-2,1.043197155E0,1.568005532E-1
4.663263560E-1,-6.081774458E-2,1.032812476E0,1.592440158E-1
4.683274560E-1,-7.181331515E-2,1.032812476E0,1.598548889E-1
4.703288220E-1,-7.731110603E-2,1.034644961E0,1.568005532E-1
4.723301550E-1,-7.486764342E-2,1.033423305E0,1.592440158E-1
4.743314880E-1,-7.608937472E-2,1.054192781E0,1.586331427E-1
4.763328540E-1,-7.914370298E-2,1.063355684E0,1.671852767E-1
4.783344200E-1,-8.158716559E-2,1.059690595E0,1.629092097E-1
4.803359860E-1,-8.036543429E-2,1.075572968E0,1.665744036E-1
4.823373520E-1,-8.036543429E-2,1.079849124E0,1.696287245E-1
4.843379520E-1,-7.975456864E-2,1.084125161E0,1.665744036E-1
4.863392850E-1,-7.670024037E-2,1.092066407E0,1.635200828E-1
4.883406510E-1,-7.670024037E-2,1.096342444E0,1.671852767E-1
4.903419840E-1,-7.975456864E-2,1.095120668E0,1.696287245E-1
4.923435500E-1,-7.486764342E-2,1.099396706E0,1.647417992E-1
4.943449160E-1,-7.425678521E-2,1.100007653E0,1.659635305E-1
4.963462490E-1,-6.692639738E-2,1.085957766E0,1.622983366E-1
4.983475820E-1,-6.203947589E-2,1.078627348E0,1.635200828E-1
5.003489480E-1,-6.142860651E-2,1.079238296E0,1.635200828E-1
5.023500480E-1,-4.798957333E-2,1.062134027E0,1.635200828E-1
5.043542480E-1,-4.676784202E-2,1.049916744E0,1.586331427E-1
5.063553140E-1,-4.127005860E-2,1.043808103E0,1.574114263E-1
5.083566470E-1,-3.210707754E-2,1.024871230E0,1.543571055E-1
5.103579800E-1,-2.966361679E-2,1.010210395E0,1.537462324E-1
5.123593130E-1,-1.805717684E-2,9.888302088E-1,1.513027698E-1
5.143606460E-1,-2.174680121E-3,9.613412619E-1,1.500810385E-1
5.163619790E-1,4.544837400E-3,9.485130906E-1,1.488593072E-1
5.183633120E-1,1.676214300E-2,9.265218973E-1,1.494701654E-1
5.203646450E-1,3.020117804E-2,9.045307636E-1,1.488593072E-1
5.223660110E-1,3.569896147E-2,8.886482716E-1,1.445832551E-1
5.243671110E-1,4.791627079E-2,8.800961375E-1,1.464158446E-1
5.263677110E-1,5.830097944E-2,8.648245335E-1,1.464158446E-1
5.283693110E-1,6.196616963E-2,8.648245335E-1,1.433615237E-1
5.303706440E-1,6.196616963E-2,8.611593843E-1,1.433615237E-1
5.323719770E-1,6.440962851E-2,8.574941158E-1,1.403071880E-1
5.343738770E-1,6.868569553E-2,8.605484366E-1,1.366419941E-1
5.363752100E-1,7.479434460E-2,8.519963622E-1,1.390854716E-1
5.383765430E-1,7.112915069E-2,8.544397950E-1,1.366419941E-1
5.403779090E-1,6.990741938E-2,8.593267202E-1,1.390854716E-1
5.423792420E-1,7.601606846E-2,8.532180786E-1,1.354202777E-1
5.443805750E-1,7.418347150E-2,8.581050634E-1,1.372528672E-1
5.463819410E-1,7.968126237E-2,8.587158918E-1,1.372528672E-1
5.483832740E-1,7.907039672E-2,8.550506830E-1,1.287007630E-1
5.503846070E-1,8.090299368E-2,8.519963622E-1,1.335876733E-1
5.523881400E-1,7.723779976E-2,8.532180786E-1,1.268681586E-1
5.543894730E-1,8.151385188E-2,8.538289666E-1,1.256464273E-1
5.563905730E-1,8.029212803E-2,8.526072502E-1,1.274790317E-1
5.583919390E-1,7.662694156E-2,8.434442878E-1,1.207595095E-1
5.603932720E-1,7.357260585E-2,8.440551162E-1,1.189269125E-1
5.623948380E-1,7.051828504E-2,8.385573030E-1,1.140399873E-1
5.663949380E-1,5.891184136E-2,8.287835121E-1,1.060987413E-1
5.683962710E-1,5.158146471E-2,8.312269449E-1,1.042661443E-1
5.703976370E-1,4.119675234E-2,8.183987141E-1,1.030444205E-1
5.723989700E-1,3.753155842E-2,8.196204901E-1,1.018226817E-1
5.744003030E-1,2.775771730E-2,8.135118484E-1,9.693576396E-2
5.764029030E-1,2.348166145E-2,7.933532596E-1,9.632489830E-2
5.784042360E-1,1.554041170E-2,7.860229015E-1,9.143797308E-2
5.804055690E-1,8.210028522E-3,7.695295215E-1,8.471845835E-2
5.824069020E-1,4.544837400E-3,7.609773874E-1,8.899451792E-2
5.844084680E-1,-3.420845314E-4,7.420405746E-1,8.471845835E-2
5.864098010E-1,-5.839871708E-3,7.279907465E-1,8.349672705E-2
5.884111340E-1,-1.255938876E-2,7.255472541E-1,8.594018221E-2
5.904124670E-1,-1.439198479E-2,7.176060081E-1,8.777277917E-2
5.924138330E-1,-1.744631119E-2,7.188277841E-1,8.349672705E-2
5.944146330E-1,-1.439198479E-2,7.157734632E-1,8.960537612E-2
5.964159660E-1,-2.111150324E-2,7.059995532E-1,9.327057004E-2
5.984173320E-1,-2.722015604E-2,6.937822700E-1,9.388143569E-2
6.004186650E-1,-2.660928853E-2,6.852301359E-1,9.204884619E-2
6.024199980E-1,-2.966361679E-2,6.699584723E-1,9.327057004E-2
6.044213640E-1,-3.088534810E-2,6.681259274E-1,9.510316700E-2
6.064226970E-1,-3.332880884E-2,6.656824350E-1,1.030444205E-1
6.084240300E-1,-2.783101983E-2,6.644607782E-1,1.122073904E-1
6.104253960E-1,-3.271793947E-2,6.705694199E-1,1.158725843E-1
6.144301620E-1,-4.065919295E-2,6.565194726E-1,1.164834499E-1
6.164317620E-1,-4.127005860E-2,6.528543234E-1,1.170943156E-1
6.184330950E-1,-5.226562917E-2,6.455239058E-1,1.244246960E-1
6.204341950E-1,-6.081774458E-2,6.345283389E-1,1.299224794E-1
6.224355610E-1,-6.081774458E-2,6.302522421E-1,1.299224794E-1
6.244368940E-1,-5.959601328E-2,6.369718313E-1,1.366419941E-1
6.264379940E-1,-6.387206912E-2,6.369718313E-1,1.360311359E-1
6.284393600E-1,-6.570466608E-2,6.326957345E-1,1.421397924E-1
6.304406930E-1,-6.020687893E-2,6.406369805E-1,1.427506506E-1
6.324420260E-1,-6.692639738E-2,6.418586969E-1,1.433615237E-1
6.344495920E-1,-6.387206912E-2,6.443021894E-1,1.470267177E-1
6.364502250E-1,-6.509380043E-2,6.436913013E-1,1.494701654E-1
6.384515580E-1,-5.593081936E-2,6.443021894E-1,1.549679637E-1
6.404529240E-1,-5.531995744E-2,6.449130177E-1,1.592440158E-1
6.424542570E-1,-4.921130463E-2,6.436913013E-1,1.549679637E-1
6.444555900E-1,-5.226562917E-2,6.498000026E-1,1.574114263E-1
6.464569560E-1,-5.226562917E-2,6.436913013E-1,1.610766202E-1
6.484582890E-1,-4.860043898E-2,6.436913013E-1,1.635200828E-1
6.504596220E-1,-4.432438314E-2,6.394152641E-1,1.604657471E-1
6.524606880E-1,-4.860043898E-2,6.302522421E-1,1.653526723E-1
6.544620210E-1,-4.432438314E-2,6.302522421E-1,1.635200828E-1
6.564633540E-1,-4.860043898E-2,6.192567348E-1,1.659635305E-1
6.584646870E-1,-4.676784202E-2,6.088719964E-1,1.616874784E-1
6.604660200E-1,-5.348736048E-2,6.003198624E-1,1.598548889E-1
6.624673860E-1,-4.860043898E-2,5.881025791E-1,1.592440158E-1
6.644687190E-1,-5.654168874E-2,5.783287287E-1,1.580222994E-1
6.664700520E-1,-5.348736048E-2,5.661114454E-1,1.537462324E-1
6.684714180E-1,-5.959601328E-2,5.520614982E-1,1.568005532E-1
6.704727510E-1,-6.326120347E-2,5.380116105E-1,1.525245011E-1
6.724740840E-1,-6.265033782E-2,5.251834989E-1,1.494701654E-1
6.764725170E-1,-6.753726304E-2,5.013597012E-1,1.537462324E-1
6.784738500E-1,-6.814812124E-2,4.787576795E-1,1.476375759E-1
6.804754500E-1,-6.998071820E-2,4.683730006E-1,1.439723819E-1
6.824767830E-1,-7.425678521E-2,4.604317248E-1,1.427506506E-1
6.844778830E-1,-7.303504646E-2,4.537122250E-1,1.409180611E-1
6.864794830E-1,-7.670024037E-2,4.396623373E-1,1.390854716E-1
6.884808160E-1,-7.731110603E-2,4.292776287E-1,1.360311359E-1
6.904826820E-1,-7.425678521E-2,4.256124198E-1,1.335876733E-1
6.924840480E-1,-7.486764342E-2,4.121733606E-1,1.341985464E-1
6.964799810E-1,-8.280888945E-2,4.042321444E-1,1.262573004E-1
6.984813470E-1,-8.158716559E-2,3.981234729E-1,1.274790317E-1
7.004826800E-1,-8.219803125E-2,3.938474059E-1,1.268681586E-1
7.024840130E-1,-8.891753852E-2,3.962908983E-1,1.219812408E-1
7.044853790E-1,-8.830668032E-2,3.907930851E-1,1.244246960E-1
7.064867120E-1,-8.219803125E-2,3.914039731E-1,1.244246960E-1
7.084880450E-1,-8.525235206E-2,3.907930851E-1,1.207595095E-1
7.104901450E-1,-8.647408336E-2,3.895713687E-1,1.201486439E-1
7.124917450E-1,-9.319360554E-2,3.865170181E-1,1.164834499E-1
7.144965780E-1,-8.891753852E-2,3.877387643E-1,1.183160469E-1
7.164976780E-1,-8.464148641E-2,3.907930851E-1,1.164834499E-1
7.184990110E-1,-8.586321771E-2,3.914039731E-1,1.164834499E-1
7.205003440E-1,-8.097629249E-2,3.962908983E-1,1.140399873E-1
7.225016770E-1,-8.036543429E-2,3.950691521E-1,1.128182635E-1
7.245030100E-1,-7.608937472E-2,3.926256895E-1,1.097639278E-1
7.265043430E-1,-7.914370298E-2,3.926256895E-1,1.097639278E-1
7.285056760E-1,-7.181331515E-2,3.877387643E-1,1.018226817E-1
7.305070090E-1,-7.425678521E-2,3.859061897E-1,9.632489830E-2
7.325083750E-1,-7.120245695E-2,3.822410107E-1,9.327057004E-2
7.345097080E-1,-7.364591211E-2,3.797975183E-1,8.777277917E-2
7.365125740E-1,-6.631553173E-2,3.791866601E-1,8.044239879E-2
7.385139400E-1,-6.692639738E-2,3.724671304E-1,7.860980183E-2
7.405152730E-1,-6.753726304E-2,3.755214512E-1,6.944682449E-2
7.425166060E-1,-6.448293477E-2,3.700236678E-1,6.517077237E-2
7.445182060E-1,-6.631553173E-2,3.681910634E-1,6.028384715E-2
7.465195390E-1,-5.593081936E-2,3.633041680E-1,5.661865696E-2
7.485208720E-1,-5.837428197E-2,3.596389890E-1,4.684481025E-2
7.505214720E-1,-5.409822613E-2,3.596389890E-1,4.562308267E-2
7.525228050E-1,-5.287649482E-2,3.596389890E-1,4.195788875E-2
7.545241380E-1,-4.982217029E-2,3.541411757E-1,4.012529552E-2
7.565255040E-1,-4.371351749E-2,3.480325341E-1,3.951442987E-2
7.585268370E-1,-4.188092053E-2,3.413130045E-1,3.523837402E-2
7.605281700E-1,-4.432438314E-2,3.455890715E-1,3.340577707E-2
7.625295360E-1,-4.310265183E-2,3.309283257E-1,2.851885371E-2
7.645308690E-1,-3.760486469E-2,3.260413706E-1,2.485366166E-2
7.665322020E-1,-4.065919295E-2,3.254305124E-1,2.485366166E-2
7.685335680E-1,-3.638313338E-2,3.229870498E-1,2.118847333E-2
7.705341680E-1,-3.455053642E-2,3.217653334E-1,1.935587637E-2
7.725355010E-1,-3.699399903E-2,3.162675500E-1,2.363193408E-2
7.765349670E-1,-3.210707754E-2,3.113806248E-1,2.790798992E-2
7.785363000E-1,-3.088534810E-2,3.071045578E-1,2.424279787E-2
7.805376660E-1,-2.477669530E-2,3.071045578E-1,2.607539296E-2
7.825389990E-1,-2.660928853E-2,3.113806248E-1,2.546452917E-2
7.845403320E-1,-2.905275114E-2,3.144349456E-1,2.302106842E-2
7.865416980E-1,-2.966361679E-2,3.150458038E-1,3.096231632E-2
7.885430310E-1,-3.027448058E-2,3.150458038E-1,2.729712427E-2
7.905443640E-1,-2.905275114E-2,3.193218708E-1,3.218404949E-2
7.925456970E-1,-2.660928853E-2,3.303174376E-1,3.523837402E-2
7.945470300E-1,-3.027448058E-2,3.364260793E-1,3.523837402E-2
7.985481630E-1,-2.966361679E-2,3.370369673E-1,3.829269856E-2
8.005494960E-1,-3.149621189E-2,3.382586837E-1,4.012529552E-2
8.025508620E-1,-2.844188549E-2,3.333717585E-1,4.134702682E-2
8.045521950E-1,-2.233323269E-2,3.309283257E-1,3.829269856E-2
8.065535280E-1,-2.477669530E-2,3.303174376E-1,4.073616117E-2
8.085548940E-1,-2.477669530E-2,3.235979378E-1,4.440135136E-2
8.105564600E-1,-2.538755909E-2,3.211544454E-1,4.317962006E-2
8.125577930E-1,-2.111150324E-2,3.132132292E-1,4.195788875E-2
8.145591590E-1,-2.966361679E-2,3.077154160E-1,4.501221329E-2
8.165648920E-1,-2.905275114E-2,3.022176623E-1,4.195788875E-2
8.185663920E-1,-3.088534810E-2,2.991633117E-1,3.523837402E-2
8.205677580E-1,-3.332880884E-2,2.930546701E-1,3.768183663E-2
8.225690910E-1,-3.027448058E-2,2.936655283E-1,4.012529552E-2
8.245704240E-1,-3.577227145E-2,2.875568867E-1,3.646010160E-2
8.265721570E-1,-3.393967450E-2,2.918329239E-1,3.707096726E-2
8.285735570E-1,-4.004832357E-2,2.942763865E-1,2.974058501E-2
8.305748900E-1,-4.127005860E-2,2.942763865E-1,3.157318011E-2
8.325762560E-1,-4.493524879E-2,2.936655283E-1,3.279491141E-2
8.345775890E-1,-4.982217029E-2,2.906112075E-1,2.607539296E-2
8.365789220E-1,-4.982217029E-2,2.906112075E-1,2.424279787E-2
8.385802880E-1,-5.043303221E-2,2.893894613E-1,2.241020277E-2
8.405816210E-1,-5.470909178E-2,2.924437821E-1,2.057760581E-2
8.425829540E-1,-6.081774458E-2,2.881677151E-1,2.057760581E-2
8.445843200E-1,-6.509380043E-2,2.881677151E-1,2.057760581E-2
8.465856530E-1,-6.570466608E-2,2.832808197E-1,1.569068432E-2
8.485873190E-1,-7.181331515E-2,2.838917077E-1,1.141462848E-2
8.505886850E-1,-6.936985999E-2,2.777830064E-1,1.630154997E-2
8.525900180E-1,-6.936985999E-2,2.783938944E-1,1.141462848E-2
8.545913510E-1,-6.936985999E-2,2.790047526E-1,1.263635792E-2
8.565929510E-1,-7.181331515E-2,2.722852528E-1,1.080376282E-2
8.585942840E-1,-7.486764342E-2,2.686200440E-1,8.971166797E-3
8.605956170E-1,-7.547850907E-2,2.698417604E-1,5.916840397E-3
8.625969500E-1,-8.036543429E-2,2.747286856E-1,5.916840397E-3
8.645982830E-1,-7.792197168E-2,2.747286856E-1,9.582032450E-3
8.665996160E-1,-7.792197168E-2,2.765613198E-1,1.080376282E-2
8.686009490E-1,-8.464148641E-2,2.765613198E-1,1.202549320E-2
8.706022820E-1,-8.036543429E-2,2.826699615E-1,1.141462848E-2
8.726036480E-1,-8.280888945E-2,2.869460285E-1,1.263635792E-2
8.746049810E-1,-8.586321771E-2,2.893894613E-1,1.752328128E-2
8.786031140E-1,-8.525235206E-2,3.028284907E-1,1.996674202E-2
8.806044470E-1,-8.769581467E-2,3.052719831E-1,2.485366166E-2
8.826057800E-1,-9.013927728E-2,3.040502369E-1,2.485366166E-2
8.846071460E-1,-8.830668032E-2,3.126023412E-1,2.729712427E-2
8.866081120E-1,-9.136100858E-2,3.113806248E-1,2.729712427E-2
8.886093780E-1,-8.769581467E-2,3.144349456E-1,2.790798992E-2
8.906107440E-1,-8.708494902E-2,3.095480204E-1,3.157318011E-2
8.926128100E-1,-8.769581467E-2,3.138240576E-1,3.218404949E-2
8.946141430E-1,-9.441532940E-2,3.132132292E-1,3.279491141E-2
8.966155090E-1,-8.403062075E-2,3.071045578E-1,3.890356421E-2
8.986168420E-1,-8.219803125E-2,3.064936697E-1,3.951442987E-2
9.006180080E-1,-8.097629249E-2,2.961089909E-1,3.890356421E-2
9.026201080E-1,-7.914370298E-2,2.930546701E-1,4.440135136E-2
9.046214410E-1,-7.731110603E-2,2.838917077E-1,4.256875440E-2
9.066227740E-1,-7.486764342E-2,2.741178274E-1,4.256875440E-2
9.086238070E-1,-6.814812124E-2,2.698417604E-1,4.501221329E-2
9.106251400E-1,-6.509380043E-2,2.619005442E-1,4.623394832E-2
9.126264730E-1,-5.287649482E-2,2.557918727E-1,4.806654528E-2
9.146278390E-1,-4.798957333E-2,2.392985225E-1,4.928827286E-2
9.166289390E-1,-4.432438314E-2,2.350224555E-1,5.295346305E-2
9.186302720E-1,-3.943746164E-2,2.252486050E-1,4.684481025E-2
9.206320050E-1,-2.966361679E-2,2.130313069E-1,4.379048571E-2
9.226333380E-1,-2.660928853E-2,2.069226503E-1,4.867740721E-2
9.246346710E-1,-1.683544554E-2,1.977596879E-1,4.806654528E-2
9.266360370E-1,-9.505063295E-3,1.965379417E-1,4.684481025E-2
9.286373700E-1,-9.505063295E-3,1.843206435E-1,4.684481025E-2
9.306387030E-1,-5.839871708E-3,1.776011288E-1,4.195788875E-2
9.326400360E-1,-9.529497474E-4,1.769902706E-1,4.195788875E-2
9.346413690E-1,3.933972213E-3,1.635512263E-1,3.768183663E-2
9.366427020E-1,8.820894174E-3,1.604969054E-1,4.256875440E-2
9.386440350E-1,9.431759827E-3,1.531665176E-1,3.951442987E-2
9.406453680E-1,1.431868132E-2,1.458361298E-1,3.584923968E-2
9.426467340E-1,1.248608623E-2,1.354514360E-1,3.523837402E-2
9.446480670E-1,1.737300679E-2,1.317862421E-1,3.646010160E-2
9.466494000E-1,2.042733319E-2,1.220123917E-1,3.340577707E-2
9.486507660E-1,1.370781567E-2,1.189580709E-1,3.340577707E-2
9.506520990E-1,1.309695095E-2,1.128494143E-1,2.851885371E-2
9.526526990E-1,1.615127735E-2,1.036864296E-1,2.790798992E-2
9.546540650E-1,1.370781567E-2,9.635604918E-2,2.912972122E-2
9.566553980E-1,1.065349020E-2,9.330172837E-2,2.729712427E-2
9.586567310E-1,5.766567774E-3,8.352787793E-2,2.851885371E-2
9.606582640E-1,5.155702587E-3,8.413875103E-2,2.668625861E-2
9.626588640E-1,1.004262455E-2,7.925182581E-2,2.485366166E-2
9.646601970E-1,7.599163335E-3,6.947798282E-2,2.607539296E-2
9.666615630E-1,6.377433427E-3,6.398019195E-2,2.363193408E-2
9.686628960E-1,6.988298614E-3,5.664981157E-2,3.096231632E-2
9.706642290E-1,6.988298614E-3,5.298461765E-2,2.790798992E-2
9.726655950E-1,1.490511233E-3,4.870856181E-2,2.974058501E-2
9.746669280E-1,2.101376420E-3,4.259990901E-2,3.157318011E-2
9.766682610E-1,4.544837400E-3,4.015645012E-2,3.096231632E-2
9.786696270E-1,2.101376420E-3,3.588039055E-2,3.340577707E-2
9.806705930E-1,-4.007276148E-3,3.099346906E-2,3.218404949E-2
9.826719260E-1,-6.450736895E-3,3.526952863E-2,2.974058501E-2
9.846732920E-1,-4.618141335E-3,3.649125621E-2,3.096231632E-2
9.866746250E-1,-7.061602082E-3,3.221520409E-2,3.462750465E-2
9.886759580E-1,-7.061602082E-3,3.221520409E-2,3.157318011E-2
9.906773240E-1,-1.439198479E-2,3.588039055E-2,3.218404949E-2
9.926786570E-1,-9.505063295E-3,3.893471882E-2,3.523837402E-2
9.946799900E-1,-1.133765932E-2,3.710212186E-2,3.768183663E-2
9.966813560E-1,-1.500285044E-2,4.259990901E-2,3.768183663E-2
9.986826890E-1,-1.439198479E-2,4.259990901E-2,3.768183663E-2
1.000684022E0,-1.561371610E-2,4.993029311E-2,4.012529552E-2
1.002685355E0,-9.505063295E-3,5.176289007E-2,3.890356421E-2
1.004686688E0,-1.133765932E-2,5.054115504E-2,3.890356421E-2
1.006687788E0,-1.255938876E-2,5.298461765E-2,3.890356421E-2
1.008689121E0,-9.505063295E-3,5.542808026E-2,3.584923968E-2
1.010690454E0,-3.396410728E-3,5.664981157E-2,3.829269856E-2
1.012691820E0,-5.229006521E-3,6.031500176E-2,4.317962006E-2
1.014693153E0,3.323107027E-3,6.153673306E-2,3.951442987E-2
1.016694486E0,5.155702587E-3,5.787153915E-2,3.401664272E-2
1.018695852E0,4.544837400E-3,5.787153915E-2,3.646010160E-2
1.020697485E0,6.988298614E-3,6.092586368E-2,3.279491141E-2
1.022698818E0,1.248608623E-2,6.520193070E-2,3.829269856E-2
1.024700184E0,1.737300679E-2,6.398019195E-2,2.912972122E-2
1.026701517E0,1.187522057E-2,6.703452021E-2,2.974058501E-2
1.028702850E0,1.676214300E-2,6.520193070E-2,3.401664272E-2
1.030704216E0,2.225993015E-2,6.398019195E-2,3.218404949E-2
1.032705682E0,1.981646940E-2,6.520193070E-2,2.974058501E-2
1.034707015E0,2.592512220E-2,6.703452021E-2,3.096231632E-2
1.036708115E0,2.775771730E-2,5.787153915E-2,2.851885371E-2
1.038709448E0,2.714684978E-2,5.970413610E-2,3.096231632E-2
1.040710781E0,2.959031239E-2,4.321077466E-2,2.363193408E-2
1.042712147E0,2.714684978E-2,3.771298751E-2,2.912972122E-2
1.044713480E0,2.775771730E-2,3.160433471E-2,3.035145067E-2
1.046714813E0,2.653598599E-2,2.121962607E-2,2.790798992E-2
1.048716179E0,2.653598599E-2,1.450010855E-2,2.424279787E-2
1.050717512E0,2.164906450E-2,4.726264626E-3,3.279491141E-2
1.052718845E0,1.920560189E-2,-6.880175322E-3,2.912972122E-2
1.054720211E0,1.737300679E-2,-1.359969284E-2,2.974058501E-2
1.056721544E0,1.309695095E-2,-2.031921037E-2,2.851885371E-2
1.058722644E0,7.599163335E-3,-2.520613372E-2,2.912972122E-2
1.060724010E0,6.988298614E-3,-2.887132391E-2,2.912972122E-2
1.062725343E0,1.490511233E-3,-3.559084237E-2,2.363193408E-2
1.064726676E0,2.687807137E-4,-4.292122647E-2,2.607539296E-2
1.066728276E0,-7.061602082E-3,-4.719728231E-2,3.096231632E-2
1.068729609E0,-6.450736895E-3,-5.208420008E-2,2.485366166E-2
1.070730942E0,-8.894198574E-3,-5.758199096E-2,2.546452917E-2
1.072732275E0,-1.744631119E-2,-5.574939400E-2,2.729712427E-2
1.074733608E0,-1.683544554E-2,-6.430150568E-2,2.241020277E-2
1.076734941E0,-1.500285044E-2,-7.651881129E-2,1.935587637E-2
1.078736274E0,-1.622457989E-2,-7.529707998E-2,1.630154997E-2
1.080737307E0,-2.233323269E-2,-8.384919912E-2,1.446895394E-2
1.082738673E0,-2.233323269E-2,-8.995784819E-2,1.507981960E-2
1.084740006E0,-1.805717684E-2,-9.117957950E-2,1.569068432E-2
1.086742072E0,-1.683544554E-2,-9.973169118E-2,1.324722357E-2
1.088743438E0,-1.805717684E-2,-9.973169118E-2,1.324722357E-2
1.090744771E0,-1.683544554E-2,-1.003425568E-1,8.360302076E-3
1.092745971E0,-1.683544554E-2,-1.021751538E-1,1.080376282E-2
1.094747337E0,-1.683544554E-2,-9.850996733E-2,1.080376282E-2
1.096748703E0,-1.561371610E-2,-9.789909422E-2,1.019289810E-2
1.098750036E0,-1.500285044E-2,-1.040077507E-1,1.019289810E-2
1.100751402E0,-1.744631119E-2,-9.912082553E-2,9.582032450E-3
1.102752735E0,-1.561371610E-2,-1.009534225E-1,1.202549320E-2
1.104754068E0,-1.072679367E-2,-1.009534225E-1,1.080376282E-2
1.106755434E0,-8.894198574E-3,-1.021751538E-1,7.138571236E-3
1.108756767E0,-3.396410728E-3,-1.082838029E-1,8.971166797E-3
1.110758100E0,-7.061602082E-3,-1.113381311E-1,7.138571236E-3
1.112759466E0,3.933972213E-3,-1.119489968E-1,7.749436423E-3
1.114760566E0,1.309695095E-2,-1.143924594E-1,7.138571236E-3
1.116761899E0,1.676214300E-2,-1.180576459E-1,8.360302076E-3
1.118763499E0,1.920560189E-2,-1.143924594E-1,4.695110489E-3
1.120765132E0,1.981646940E-2,-1.150033250E-1,4.190535401E-4
1.122766465E0,2.348166145E-2,-1.223337129E-1,4.084245302E-3
1.124767831E0,3.203377500E-2,-1.247771680E-1,4.084245302E-3
1.126769631E0,2.409252524E-2,-1.235554367E-1,1.640783972E-3
1.128770964E0,3.264463693E-2,-1.284423470E-1,2.862514462E-3
1.130772330E0,2.775771730E-2,-1.284423470E-1,-2.635272685E-3
1.132773430E0,2.897944674E-2,-1.308858246E-1,4.190535401E-4
1.134774763E0,2.164906450E-2,-1.357727349E-1,-1.918116759E-4
1.136776129E0,1.798387244E-2,-1.394379288E-1,-2.635272685E-3
1.138777462E0,1.737300679E-2,-1.437139958E-1,-4.467868246E-3
1.140778795E0,5.155702587E-3,-1.540986896E-1,-8.133059368E-3
1.142780128E0,2.712241607E-3,-1.565421671E-1,-3.857003292E-3
1.144781461E0,-4.618141335E-3,-1.699811965E-1,-7.522194646E-3
1.146782061E0,-1.683544554E-2,-1.803659052E-1,-1.179825142E-2
1.148783394E0,-1.927890815E-2,-1.864745617E-1,-1.240911707E-2
1.150784727E0,-2.355496399E-2,-1.907506138E-1,-1.179825142E-2
1.152786093E0,-2.783101983E-2,-1.968592703E-1,-1.057652105E-2
1.154787426E0,-2.844188549E-2,-2.023570538E-1,-1.057652105E-2
1.156788992E0,-2.966361679E-2,-2.078548372E-1,-1.301998179E-2
1.158790358E0,-3.271793947E-2,-2.109091580E-1,-1.240911707E-2
1.160791691E0,-3.088534810E-2,-2.145743519E-1,-1.363084652E-2
1.162793024E0,-3.760486469E-2,-2.206830084E-1,-9.965655394E-3
1.164794390E0,-3.882659599E-2,-2.280133963E-1,-9.354790673E-3
1.166795723E0,-3.821573034E-2,-2.322894484E-1,-1.118738670E-2
1.168797056E0,-4.737870768E-2,-2.371763736E-1,-1.301998179E-2
1.170798356E0,-4.798957333E-2,-2.438958883E-1,-1.301998179E-2
1.172799856E0,-4.493524879E-2,-2.512262762E-1,-1.118738670E-2
1.174801422E0,-4.554611072E-2,-2.567240596E-1,-1.118738670E-2
1.176803155E0,-4.432438314E-2,-2.561132014E-1,-1.301998179E-2
1.178804488E0,-4.737870768E-2,-2.646653056E-1,-1.301998179E-2
1.180805521E0,-4.615698010E-2,-2.646653056E-1,-1.424171217E-2
1.182806887E0,-4.860043898E-2,-2.652761936E-1,-2.157209627E-2
1.184808687E0,-5.043303221E-2,-2.707739472E-1,-1.607430913E-2
1.186809553E0,-5.287649482E-2,-2.701630890E-1,-1.790690422E-2
1.188810919E0,-5.165476725E-2,-2.768825889E-1,-1.607430913E-2
1.190812252E0,-5.348736048E-2,-2.823804021E-1,-2.157209627E-2
1.192813818E0,-5.043303221E-2,-2.829912603E-1,-2.218296006E-2
1.194815184E0,-5.043303221E-2,-2.836021483E-1,-1.912863366E-2
1.196816917E0,-5.593081936E-2,-2.897107899E-1,-1.973949932E-2
1.198818250E0,-5.348736048E-2,-2.933759689E-1,-1.912863366E-2
1.200819616E0,-5.165476725E-2,-2.970411777E-1,-2.462642081E-2
1.202820949E0,-5.348736048E-2,-3.025389314E-1,-2.340469137E-2
1.204822282E0,-4.921130463E-2,-3.062041402E-1,-2.401555702E-2
1.206823648E0,-5.226562917E-2,-3.141453862E-1,-2.523728833E-2
1.208824981E0,-4.921130463E-2,-3.110910654E-1,-2.951334417E-2
1.210826314E0,-4.798957333E-2,-3.129236698E-1,-2.768074721E-2
1.212827647E0,-4.371351749E-2,-3.171997070E-1,-2.768074721E-2
1.214828980E0,-4.921130463E-2,-3.190323114E-1,-3.012420796E-2
1.216830313E0,-4.737870768E-2,-3.141453862E-1,-2.951334417E-2
1.218831646E0,-4.554611072E-2,-3.178105652E-1,-3.134594113E-2
1.220832746E0,-4.676784202E-2,-3.159779906E-1,-2.401555702E-2
1.222834212E0,-4.554611072E-2,-3.220866323E-1,-3.012420796E-2
1.224835545E0,-4.860043898E-2,-3.226975203E-1,-3.317853436E-2
1.226836878E0,-4.432438314E-2,-3.239192367E-1,-3.562199324E-2
1.228838244E0,-4.310265183E-2,-3.226975203E-1,-4.050891846E-2
1.230839644E0,-4.432438314E-2,-3.330822289E-1,-4.111978039E-2
1.232840810E0,-4.371351749E-2,-3.288061619E-1,-4.356324300E-2
1.234842176E0,-4.554611072E-2,-3.349148333E-1,-4.295237735E-2
1.236843142E0,-4.249178618E-2,-3.367474079E-1,-4.845016450E-2
1.238844475E0,-4.188092053E-2,-3.428560495E-1,-4.845016450E-2
1.240845841E0,-4.798957333E-2,-3.507972956E-1,-4.845016450E-2
1.242847174E0,-4.554611072E-2,-3.514081836E-1,-5.028276145E-2
1.244848040E0,-4.432438314E-2,-3.599602878E-1,-5.150449276E-2
1.246849406E0,-4.615698010E-2,-3.679015636E-1,-5.394795164E-2
1.248850739E0,-4.798957333E-2,-3.715667129E-1,-5.455881730E-2
1.250852072E0,-4.615698010E-2,-3.831731677E-1,-5.333708972E-2
1.252853438E0,-4.676784202E-2,-3.966122270E-1,-5.516968668E-2
1.254854771E0,-4.921130463E-2,-4.008882344E-1,-5.761314556E-2
1.256856271E0,-4.798957333E-2,-4.094403684E-1,-5.700227991E-2
1.258857637E0,-5.837428197E-2,-4.210468233E-1,-6.127833575E-2
1.260858970E0,-5.409822613E-2,-4.302097857E-1,-5.700227991E-2
1.262860303E0,-5.226562917E-2,-4.375401735E-1,-6.250006706E-2
1.264861669E0,-5.165476725E-2,-4.473140240E-1,-5.944573879E-2
1.266863002E0,-5.593081936E-2,-4.454814196E-1,-6.005660444E-2
1.268864335E0,-5.776341632E-2,-4.522009194E-1,-5.822401121E-2
1.270865701E0,-5.898514763E-2,-4.564769864E-1,-6.066747382E-2
1.272867034E0,-5.837428197E-2,-4.680834413E-1,-6.005660444E-2
1.274868367E0,-6.142860651E-2,-4.644182324E-1,-5.211535469E-2
1.276869733E0,-6.265033782E-2,-4.693051875E-1,-5.944573879E-2
1.278871066E0,-6.753726304E-2,-4.766355455E-1,-6.188920140E-2
1.280872632E0,-6.326120347E-2,-4.790790081E-1,-5.761314556E-2
1.282873865E0,-6.448293477E-2,-4.766355455E-1,-5.578054860E-2
1.284875198E0,-6.570466608E-2,-4.748029411E-1,-6.188920140E-2
1.286876531E0,-6.509380043E-2,-4.815224707E-1,-5.822401121E-2
1.288877864E0,-6.203947589E-2,-4.851876497E-1,-5.944573879E-2
1.290879197E0,-6.448293477E-2,-4.900745749E-1,-5.883487687E-2
1.292880530E0,-6.142860651E-2,-4.851876497E-1,-5.700227991E-2
1.294881863E0,-6.326120347E-2,-4.912963212E-1,-5.883487687E-2
1.296883196E0,-5.715255439E-2,-4.925180376E-1,-5.761314556E-2
1.298884562E0,-5.776341632E-2,-4.949615300E-1,-5.700227991E-2
1.300885895E0,-5.837428197E-2,-4.949615300E-1,-6.311093271E-2
1.302887228E0,-5.593081936E-2,-5.029027462E-1,-5.944573879E-2
1.304888594E0,-5.470909178E-2,-5.016810298E-1,-6.127833575E-2
1.306889927E0,-5.348736048E-2,-5.041244626E-1,-6.188920140E-2
1.308891993E0,-4.860043898E-2,-5.132874846E-1,-6.127833575E-2
1.310893359E0,-4.615698010E-2,-5.157309175E-1,-5.822401121E-2
1.312894692E0,-4.676784202E-2,-5.230612755E-1,-6.494352967E-2
1.314896025E0,-4.249178618E-2,-5.255047679E-1,-6.372179836E-2
1.316896825E0,-3.943746164E-2,-5.401655436E-1,-6.372179836E-2
1.318897958E0,-2.905275114E-2,-5.481067896E-1,-6.677612662E-2
1.320899291E0,-2.722015604E-2,-5.487176776E-1,-6.311093271E-2
1.322900657E0,-2.355496399E-2,-5.646001697E-1,-6.555438787E-2
1.324901990E0,-2.172236890E-2,-5.719305277E-1,-6.860871613E-2
1.326903323E0,-2.172236890E-2,-5.762066245E-1,-6.983045489E-2
1.328907556E0,-1.744631119E-2,-5.859804153E-1,-7.227391005E-2
1.330908889E0,-1.561371610E-2,-5.945325494E-1,-7.349564135E-2
1.332910222E0,-1.378112007E-2,-6.018629074E-1,-7.777170092E-2
1.334911588E0,-1.194852404E-2,-6.177453995E-1,-8.021515608E-2
1.336912921E0,-7.061602082E-3,-6.281301379E-1,-7.716083527E-2
1.338914254E0,-4.618141335E-3,-6.317953467E-1,-8.571294695E-2
1.340915620E0,-8.283332922E-3,-6.501212716E-1,-8.815640956E-2
1.342916953E0,-7.061602082E-3,-6.586734056E-1,-8.998900652E-2
1.344918286E0,-8.283332922E-3,-6.653928757E-1,-9.304332733E-2
1.346919652E0,-8.283332922E-3,-6.776102185E-1,-9.487592429E-2
1.348920985E0,-8.283332922E-3,-6.873840094E-1,-1.003737077E-1
1.350922318E0,-1.133765932E-2,-7.008231282E-1,-9.487592429E-2
1.352923684E0,-2.294410020E-2,-7.099860907E-1,-9.609765559E-2
1.354925017E0,-2.538755909E-2,-7.185382247E-1,-9.793025255E-2
1.356926350E0,-2.538755909E-2,-7.264794111E-1,-1.009845734E-1
1.358927683E0,-3.271793947E-2,-7.338098288E-1,-1.009845734E-1
1.360929016E0,-3.455053642E-2,-7.429727912E-1,-1.009845734E-1
1.362930349E0,-3.638313338E-2,-7.545792460E-1,-1.015954465E-1
1.364931682E0,-4.188092053E-2,-7.558009624E-1,-1.028171703E-1
1.366933015E0,-4.127005860E-2,-7.686291337E-1,-9.731938690E-2
1.368933648E0,-4.249178618E-2,-7.796247005E-1,-9.976284951E-2
1.370934981E0,-4.615698010E-2,-7.802355886E-1,-9.915198386E-2
1.372936314E0,-4.371351749E-2,-7.955071926E-1,-1.003737077E-1
1.374937680E0,-4.554611072E-2,-7.991724014E-1,-9.670852125E-2
1.376939013E0,-4.493524879E-2,-8.028376102E-1,-1.009845734E-1
1.378940413E0,-3.943746164E-2,-8.052810431E-1,-9.548678994E-2
1.380941779E0,-3.699399903E-2,-8.065028191E-1,-9.426505864E-2
1.382943112E0,-3.516140208E-2,-8.101679683E-1,-9.854111820E-2
1.384944445E0,-3.760486469E-2,-8.181092143E-1,-9.426505864E-2
1.386945811E0,-3.210707754E-2,-8.181092143E-1,-9.365420043E-2
1.390945610E0,-2.722015604E-2,-8.309373856E-1,-1.009845734E-1
1.392946976E0,-2.844188549E-2,-8.370460272E-1,-1.028171703E-1
1.394948309E0,-2.538755909E-2,-8.468198776E-1,-1.028171703E-1
1.396950375E0,-2.050063759E-2,-8.529285192E-1,-1.064823642E-1
1.398951741E0,-2.233323269E-2,-8.541502953E-1,-1.058714986E-1
1.400953074E0,-2.416582778E-2,-8.645349741E-1,-1.052606329E-1
1.402954407E0,-2.905275114E-2,-8.798066378E-1,-1.046497673E-1
1.404955507E0,-3.027448058E-2,-8.822500706E-1,-1.089258268E-1
1.406956840E0,-3.455053642E-2,-8.932456374E-1,-1.052606329E-1
1.408958173E0,-4.065919295E-2,-8.999651670E-1,-1.070932299E-1
1.410959539E0,-3.882659599E-2,-9.030194879E-1,-1.046497673E-1
1.412960872E0,-4.127005860E-2,-9.127933383E-1,-1.034280360E-1
1.414962205E0,-4.065919295E-2,-9.140150547E-1,-1.009845734E-1
1.416963571E0,-4.249178618E-2,-9.201236963E-1,-9.915198386E-2
1.418964904E0,-3.882659599E-2,-9.298976064E-1,-9.670852125E-2
1.420966237E0,-4.127005860E-2,-9.341736436E-1,-9.548678994E-2
1.422972837E0,-3.760486469E-2,-9.384496212E-1,-9.243246168E-2
1.424974170E0,-3.760486469E-2,-9.396713972E-1,-8.632381260E-2
1.426975503E0,-3.882659599E-2,-9.390605688E-1,-8.204775304E-2
1.428976836E0,-3.516140208E-2,-9.433366060E-1,-7.960429043E-2
1.430978169E0,-2.966361679E-2,-9.390605688E-1,-7.349564135E-2
1.432979502E0,-2.844188549E-2,-9.408931136E-1,-7.105217874E-2
1.434980835E0,-2.416582778E-2,-9.353953004E-1,-6.250006706E-2
1.436982168E0,-2.233323269E-2,-9.457800388E-1,-6.372179836E-2
1.438983668E0,-1.927890815E-2,-9.451692104E-1,-6.127833575E-2
1.440985001E0,-1.927890815E-2,-9.488344193E-1,-5.394795164E-2
1.442986334E0,-1.988977194E-2,-9.476126432E-1,-5.028276145E-2
1.444987700E0,-1.378112007E-2,-9.586082101E-1,-4.478497431E-2
1.446989033E0,-1.561371610E-2,-9.586082101E-1,-3.928718716E-2
1.448990366E0,-1.744631119E-2,-9.622734189E-1,-3.317853436E-2
1.450991732E0,-1.866804063E-2,-9.677711725E-1,-2.768074721E-2
1.452993065E0,-2.416582778E-2,-9.757124782E-1,-2.523728833E-2
1.454994398E0,-2.172236890E-2,-9.751015902E-1,-1.912863366E-2
1.456995031E0,-2.355496399E-2,-9.744907022E-1,-1.912863366E-2
1.458996364E0,-1.683544554E-2,-9.836536646E-1,-1.851776801E-2
1.460997630E0,-2.355496399E-2,-9.781559706E-1,-1.485257689E-2
1.462998996E0,-1.317025442E-2,-9.836536646E-1,-8.133059368E-3
1.465000596E0,-1.072679367E-2,-9.781559706E-1,-1.057652105E-2
1.467001929E0,-1.194852404E-2,-9.842646122E-1,-1.179825142E-2
1.469003295E0,-1.011592895E-2,-9.763233066E-1,-9.354790673E-3
1.471004628E0,-3.396410728E-3,-9.793776274E-1,-1.240911707E-2
1.473005961E0,-1.563815051E-3,-9.818211198E-1,-1.057652105E-2
1.475007327E0,-3.420845314E-4,-9.781559706E-1,-1.301998179E-2
1.477008660E0,2.101376420E-3,-9.775450230E-1,-1.118738670E-2
1.479009993E0,1.248608623E-2,-9.787667990E-1,-1.729603857E-2
1.481011359E0,1.676214300E-2,-9.738798738E-1,-2.279382572E-2
1.485008792E0,2.042733319E-2,-9.689929485E-1,-2.768074721E-2
1.487010158E0,1.309695095E-2,-9.665495157E-1,-3.867632151E-2
1.489011491E0,2.225993015E-2,-9.634951949E-1,-4.295237735E-2
1.491012824E0,2.103819884E-2,-9.573864937E-1,-4.845016450E-2
1.493014190E0,1.920560189E-2,-9.433366060E-1,-5.211535469E-2
1.495015523E0,2.101376420E-3,-8.999651670E-1,-6.555438787E-2
1.497016856E0,-6.450736895E-3,-8.736979365E-1,-7.960429043E-2
1.499018489E0,-7.061602082E-3,-8.853043914E-1,-7.960429043E-2
1.501019822E0,-4.007276148E-3,-8.920239210E-1,-8.082602918E-2
1.503021155E0,5.766567774E-3,-9.079064131E-1,-9.426505864E-2
1.505023621E0,1.004262455E-2,-9.121825099E-1,-9.548678994E-2
1.507024954E0,2.287079394E-2,-9.243997931E-1,-9.731938690E-2
1.509026320E0,2.409252524E-2,-9.311192632E-1,-1.015954465E-1
1.511027853E0,3.814242408E-2,-9.628843069E-1,-1.125910208E-1
1.513030953E0,5.097059533E-2,-1.001979709E0,-1.174779385E-1
1.515032319E0,5.952271074E-2,-1.012364388E0,-1.193105280E-1
1.517033652E0,6.318789721E-2,-1.033744574E0,-1.266409159E-1
1.519034985E0,6.318789721E-2,-1.045961857E0,-1.382473558E-1
1.521036418E0,5.952271074E-2,-1.047794580E0,-1.394690871E-1
1.523037751E0,5.341405794E-2,-1.045961857E0,-1.510755271E-1
1.525039084E0,3.936415538E-2,-1.036188126E0,-1.541298479E-1
1.527040450E0,3.630983084E-2,-1.031912088E0,-1.584059149E-1
1.529041783E0,2.775771730E-2,-1.048405409E0,-1.657363027E-1
1.531043116E0,2.531425655E-2,-1.056346655E0,-1.657363027E-1
1.533044482E0,2.287079394E-2,-1.063066125E0,-1.694014966E-1
1.535045815E0,1.859473810E-2,-1.074672580E0,-1.712340862E-1
1.537047148E0,2.042733319E-2,-1.084446430E0,-1.755101383E-1
1.539048514E0,2.164906450E-2,-1.109491944E0,-1.822296530E-1
1.541049847E0,2.470339090E-2,-1.129039645E0,-1.840622574E-1
1.543051913E0,1.981646940E-2,-1.137591839E0,-1.840622574E-1
1.545053279E0,1.981646940E-2,-1.146754742E0,-1.901708990E-1
1.547054612E0,1.920560189E-2,-1.165080667E0,-1.907817721E-1
1.549055945E0,1.981646940E-2,-1.169967651E0,-1.926143616E-1
1.551057311E0,1.554041170E-2,-1.192569613E0,-2.005556226E-1
1.553058644E0,2.103819884E-2,-1.210895658E0,-1.956686825E-1
1.555059977E0,2.164906450E-2,-1.217615128E0,-1.956686825E-1
1.557062077E0,2.103819884E-2,-1.230443239E0,-1.975012869E-1
1.559063110E0,1.920560189E-2,-1.236551881E0,-1.987230182E-1
1.561064443E0,2.592512220E-2,-1.247547507E0,-1.975012869E-1
1.563065809E0,2.164906450E-2,-1.255488753E0,-2.036099434E-1
1.565066009E0,2.348166145E-2,-1.260986567E0,-2.042208165E-1
1.567067342E0,1.920560189E-2,-1.264651775E0,-2.060534060E-1
1.569070842E0,1.981646940E-2,-1.280534148E0,-2.066642642E-1
1.571071975E0,2.103819884E-2,-1.277479887E0,-2.054425329E-1
1.575072874E0,1.798387244E-2,-1.287864566E0,-2.066642642E-1
1.577074207E0,2.225993015E-2,-1.292140603E0,-2.091077268E-1
1.579075573E0,2.775771730E-2,-1.298249245E0,-2.103294581E-1
1.581076906E0,2.775771730E-2,-1.299471021E0,-2.054425329E-1
1.583078239E0,2.775771730E-2,-1.301914573E0,-2.060534060E-1
1.585079605E0,3.142290935E-2,-1.301914573E0,-2.066642642E-1
1.587080938E0,3.264463693E-2,-1.301303625E0,-2.042208165E-1
1.589082271E0,3.142290935E-2,-1.302525401E0,-2.048316598E-1
1.591083637E0,3.386636823E-2,-1.309244871E0,-2.084968537E-1
1.593084970E0,4.241848364E-2,-1.308023214E0,-2.017773390E-1
1.595086303E0,3.753155842E-2,-1.307412267E0,-1.999447495E-1
1.597087669E0,4.058588669E-2,-1.309855700E0,-2.036099434E-1
1.599089002E0,4.058588669E-2,-1.314742684E0,-2.005556226E-1
1.601090335E0,3.936415538E-2,-1.316575289E0,-1.981121451E-1
1.603090968E0,4.058588669E-2,-1.323905587E0,-1.999447495E-1
1.605092301E0,4.364021122E-2,-1.323294759E0,-1.999447495E-1
1.607093634E0,3.875329345E-2,-1.322072983E0,-1.999447495E-1
1.609095000E0,3.508809954E-2,-1.331846952E0,-1.975012869E-1
1.611096333E0,3.203377500E-2,-1.333679438E0,-1.950578243E-1
1.613097433E0,2.714684978E-2,-1.349562049E0,-1.993338764E-1
1.615098799E0,2.287079394E-2,-1.350172877E0,-1.981121451E-1
1.617099399E0,1.737300679E-2,-1.363000989E0,-2.005556226E-1
1.619100732E0,1.126435492E-2,-1.372774959E0,-1.968904287E-1
1.621106632E0,7.599163335E-3,-1.374607444E0,-1.999447495E-1
1.623108165E0,8.796459297E-4,-1.391711712E0,-2.017773390E-1
1.625109498E0,-1.563815051E-3,-1.394155145E0,-1.993338764E-1
1.627111598E0,-1.011592895E-2,-1.403318167E0,-2.054425329E-1
1.631112097E0,-1.378112007E-2,-1.431417942E0,-2.060534060E-1
1.633113463E0,-1.988977194E-2,-1.441802621E0,-2.054425329E-1
1.635115363E0,-2.966361679E-2,-1.458296061E0,-2.084968537E-1
1.637116696E0,-3.699399903E-2,-1.460128546E0,-2.078859955E-1
1.639118029E0,-4.249178618E-2,-1.464404702E0,-2.133837938E-1
1.641119362E0,-4.493524879E-2,-1.474178433E0,-2.115511894E-1
1.643120695E0,-5.165476725E-2,-1.472956777E0,-2.091077268E-1
1.645122028E0,-5.531995744E-2,-1.474789262E0,-2.103294581E-1
1.647123361E0,-5.898514763E-2,-1.474178433E0,-2.115511894E-1
1.649124727E0,-5.837428197E-2,-1.477232814E0,-2.170489877E-1
1.651126060E0,-6.448293477E-2,-1.472345948E0,-2.170489877E-1
1.653127160E0,-6.814812124E-2,-1.467458963E0,-2.164381146E-1
1.655128526E0,-6.936985999E-2,-1.468069792E0,-2.207141668E-1
1.657129859E0,-6.570466608E-2,-1.464404702E0,-2.249902189E-1
1.659131192E0,-6.692639738E-2,-1.461961150E0,-2.256010920E-1
1.661132558E0,-6.692639738E-2,-1.458296061E0,-2.292662859E-1
1.663133891E0,-6.387206912E-2,-1.465626359E0,-2.347640693E-1
1.665135224E0,-6.570466608E-2,-1.455241680E0,-2.390401214E-1
1.667136590E0,-6.326120347E-2,-1.461961150E0,-2.433161736E-1
1.669137923E0,-5.837428197E-2,-1.469291568E0,-2.537008822E-1
1.671139256E0,-5.776341632E-2,-1.466237307E0,-2.555334866E-1
1.673140856E0,-5.776341632E-2,-1.470513344E0,-2.622529864E-1
1.675142189E0,-5.654168874E-2,-1.474178433E0,-2.671399117E-1
1.677143389E0,-5.104389787E-2,-1.469291568E0,-2.701942325E-1
1.679144755E0,-5.470909178E-2,-1.472956777E0,-2.726377249E-1
1.683142688E0,-4.982217029E-2,-1.468680620E0,-2.811898291E-1
1.685144054E0,-4.737870768E-2,-1.465015531E0,-2.860767543E-1
1.687144654E0,-5.409822613E-2,-1.458906889E0,-2.818006873E-1
1.689145987E0,-5.287649482E-2,-1.452187419E0,-2.842441499E-1
1.691147353E0,-5.348736048E-2,-1.454630852E0,-2.830224335E-1
1.693149419E0,-5.715255439E-2,-1.452187419E0,-2.805789411E-1
1.695150185E0,-5.531995744E-2,-1.455241680E0,-2.854658961E-1
1.697152051E0,-4.798957333E-2,-1.452798247E0,-2.830224335E-1
1.699153384E0,-5.409822613E-2,-1.447911263E0,-2.818006873E-1
1.701154850E0,-4.860043898E-2,-1.450354695E0,-2.738594413E-1
1.703156216E0,-4.310265183E-2,-1.448522091E0,-2.708051205E-1
1.705157416E0,-4.432438314E-2,-1.441191792E0,-2.634747326E-1
1.707158749E0,-3.882659599E-2,-1.435083151E0,-2.524791658E-1
1.709160082E0,-3.882659599E-2,-1.432028770E0,-2.518682778E-1
1.711161415E0,-4.065919295E-2,-1.418589711E0,-2.378183901E-1
1.713162981E0,-3.943746164E-2,-1.413702846E0,-2.304880023E-1
1.715164047E0,-4.310265183E-2,-1.415535450E0,-2.280445546E-1
1.717165380E0,-4.188092053E-2,-1.405761600E0,-2.152163833E-1
1.719166746E0,-3.760486469E-2,-1.400874615E0,-2.005556226E-1
1.721168812E0,-4.188092053E-2,-1.391100883E0,-1.926143616E-1
1.723170145E0,-4.554611072E-2,-1.386213899E0,-1.865057051E-1
1.725171511E0,-4.615698010E-2,-1.369109631E0,-1.706232131E-1
1.727172844E0,-4.493524879E-2,-1.372774959E0,-1.663471460E-1
1.729174177E0,-4.982217029E-2,-1.360557675E0,-1.504646540E-1
1.731175543E0,-4.921130463E-2,-1.357503176E0,-1.510755271E-1
1.733176876E0,-5.593081936E-2,-1.353227139E0,-1.406908184E-1
1.735178209E0,-5.898514763E-2,-1.352005482E0,-1.333604306E-1
1.737179709E0,-6.020687893E-2,-1.354448795E0,-1.290843785E-1
1.739181042E0,-5.837428197E-2,-1.366055250E0,-1.254191846E-1
1.741182375E0,-6.387206912E-2,-1.373996615E0,-1.205322668E-1
1.743183675E0,-6.570466608E-2,-1.373996615E0,-1.138127446E-1
1.745185008E0,-7.059159130E-2,-1.388046503E0,-1.144236177E-1
1.747186341E0,-7.242418826E-2,-1.389268160E0,-1.113692820E-1
1.749187707E0,-7.547850907E-2,-1.391100883E0,-1.138127446E-1
1.751189040E0,-8.280888945E-2,-1.395376801E0,-1.040389016E-1
1.753189640E0,-8.525235206E-2,-1.406372428E0,-1.058714986E-1
1.755191740E0,-9.380446374E-2,-1.406983256E0,-1.058714986E-1
1.757192573E0,-9.685879201E-2,-1.411259413E0,-1.009845734E-1
1.759193906E0,-1.011348516E-1,-1.417368054E0,-9.854111820E-2
1.761194872E0,-1.096869633E-1,-1.418589711E0,-9.976284951E-2
1.763196205E0,-1.157956198E-1,-1.414924502E0,-9.854111820E-2
1.765197671E0,-1.231260002E-1,-1.419200540E0,-9.548678994E-2
1.767199037E0,-1.219042689E-1,-1.417368054E0,-9.121073037E-2
1.769200370E0,-1.267911941E-1,-1.414924502E0,-8.693467826E-2
1.771201670E0,-1.292346567E-1,-1.409426808E0,-8.571294695E-2
1.773203036E0,-1.347324401E-1,-1.391100883E0,-8.204775304E-2
1.775204636E0,-1.377867609E-1,-1.375829220E0,-8.388034999E-2
1.777205969E0,-1.402302235E-1,-1.364833593E0,-8.021515608E-2
1.779207302E0,-1.432845443E-1,-1.334290385E0,-7.471737266E-2
1.781207902E0,-1.445062906E-1,-1.320240498E0,-7.471737266E-2
1.783209235E0,-1.457280070E-1,-1.298860192E0,-7.410650700E-2
1.785210568E0,-1.432845443E-1,-1.266484261E0,-6.921958178E-2
1.787211901E0,-1.445062906E-1,-1.253045321E0,-7.593910396E-2
1.789213267E0,-1.255694628E-1,-1.245103955E0,-7.471737266E-2
1.791214600E0,-1.243477315E-1,-1.227388859E0,-8.143688738E-2
1.793215933E0,-1.212934032E-1,-1.204176068E0,-7.899343222E-2
1.795217299E0,-1.231260002E-1,-1.171800137E0,-7.838255912E-2
1.797218699E0,-1.206825376E-1,-1.140646100E0,-7.960429043E-2
1.799220032E0,-1.206825376E-1,-1.117433190E0,-8.326948434E-2
1.801221398E0,-1.182390749E-1,-1.079559565E0,-8.571294695E-2
1.803223531E0,-1.127412841E-1,-1.063676953E0,-8.754553646E-2
1.805224864E0,-1.054109037E-1,-1.047794580E0,-9.487592429E-2
1.807226230E0,-9.319360554E-2,-1.039853215E0,-1.070932299E-1
1.809227696E0,-9.869138896E-2,-1.033744574E0,-1.083149537E-1
1.811229029E0,-9.685879201E-2,-1.008699179E0,-1.028171703E-1
1.813230395E0,-9.869138896E-2,-9.732689857E-1,-1.052606329E-1
1.815230995E0,-9.808052331E-2,-9.616625309E-1,-1.070932299E-1
1.817232061E0,-9.319360554E-2,-9.268432856E-1,-1.119801477E-1
1.819233427E0,-9.441532940E-2,-8.962999582E-1,-1.156453416E-1
1.821235027E0,-9.624792635E-2,-8.938565254E-1,-1.132018790E-1
1.823236360E0,-8.036543429E-2,-8.853043914E-1,-1.107584238E-1
1.825237726E0,-7.608937472E-2,-8.682001829E-1,-1.138127446E-1
1.827239059E0,-7.364591211E-2,-8.553720117E-1,-1.162562072E-1
1.829240392E0,-7.120245695E-2,-8.193309307E-1,-1.162562072E-1
1.831241792E0,-7.425678521E-2,-7.985615134E-1,-1.174779385E-1
1.833243858E0,-7.731110603E-2,-7.582444549E-1,-1.223648638E-1
1.835245191E0,-7.547850907E-2,-7.435836792E-1,-1.296952367E-1
1.837246557E0,-7.608937472E-2,-7.301446795E-1,-1.296952367E-1
1.839247657E0,-6.081774458E-2,-7.386966944E-1,-1.376364827E-1
1.841248990E0,-5.715255439E-2,-7.185382247E-1,-1.504646540E-1
1.843250490E0,-5.593081936E-2,-7.014339566E-1,-1.498537958E-1
1.845251823E0,-6.020687893E-2,-6.855514646E-1,-1.529081315E-1
1.847253156E0,-4.982217029E-2,-6.605060101E-1,-1.498537958E-1
1.849254489E0,-4.615698010E-2,-6.525647640E-1,-1.480211914E-1
1.851255822E0,-2.416582778E-2,-6.580625176E-1,-1.492429376E-1
1.853257155E0,-1.866804063E-2,-6.482886672E-1,-1.480211914E-1
1.855258488E0,-1.866804063E-2,-6.146910787E-1,-1.461886019E-1
1.857260154E0,-1.805717684E-2,-5.853695869E-1,-1.376364827E-1
1.859261487E0,-1.439198479E-2,-5.737631321E-1,-1.382473558E-1
1.861262820E0,-2.785545541E-3,-5.474959016E-1,-1.272517890E-1
1.863263420E0,5.766567774E-3,-5.401655436E-1,-1.223648638E-1
1.865264786E0,1.431868132E-2,-5.432198644E-1,-1.235865951E-1
1.867266119E0,3.569896147E-2,-5.597131848E-1,-1.211431250E-1
1.869267319E0,4.669453949E-2,-5.493285060E-1,-1.162562072E-1
1.871268685E0,5.280319229E-2,-5.340569019E-1,-1.083149537E-1
1.873270018E0,6.196616963E-2,-5.077896714E-1,-1.089258268E-1
1.875271351E0,7.051828504E-2,-4.906854630E-1,-1.083149537E-1
1.877272984E0,7.296174765E-2,-4.711377621E-1,-1.034280360E-1
1.879274317E0,8.029212803E-2,-4.479248822E-1,-9.731938690E-2
1.881275417E0,8.151385188E-2,-4.295989275E-1,-9.609765559E-2
1.883276783E0,9.189856797E-2,-4.124946892E-1,-9.670852125E-2
1.885278116E0,9.617462009E-2,-3.825622797E-1,-8.876727521E-2
1.887279449E0,9.861809015E-2,-3.679015636E-1,-8.815640956E-2
1.889280815E0,1.102245227E-1,-3.550733626E-1,-8.510208130E-2
1.891282148E0,1.291613430E-1,-3.526299000E-1,-8.693467826E-2
1.893282748E0,1.242744252E-1,-3.355256617E-1,-8.815640956E-2
1.895284114E0,1.224418357E-1,-2.933759689E-1,-9.243246168E-2
1.897285447E0,1.224418357E-1,-2.536697388E-1,-9.609765559E-2
1.899286913E0,1.193875074E-1,-2.359546423E-1,-9.670852125E-2
1.901288279E0,1.242744252E-1,-2.133526355E-1,-9.854111820E-2
1.903289479E0,1.230526939E-1,-2.023570538E-1,-1.052606329E-1
1.905290812E0,1.242744252E-1,-1.791441739E-1,-1.095366925E-1
1.907292178E0,1.261070222E-1,-1.540986896E-1,-1.156453416E-1
1.909293511E0,1.352699995E-1,-1.461574584E-1,-1.199214011E-1
1.911294844E0,1.316048056E-1,-1.198902428E-1,-1.241974533E-1
1.913296210E0,1.401569247E-1,-9.362304211E-2,-1.254191846E-1
1.915297543E0,1.419895142E-1,-8.690351993E-2,-1.296952367E-1
1.917299209E0,1.413786411E-1,-6.430150568E-2,-1.241974533E-1
1.919300575E0,1.505416334E-1,-6.491237879E-2,-1.284735054E-1
1.921301908E0,1.566502899E-1,-6.307977438E-2,-1.315278262E-1
1.923303241E0,1.670349836E-1,-8.140573651E-2,-1.351930201E-1
1.925304574E0,1.719219238E-1,-9.423390031E-2,-1.345821619E-1
1.927305907E0,1.768088341E-1,-1.162250489E-1,-1.388582140E-1
1.929307473E0,1.798631549E-1,-1.266097575E-1,-1.413016766E-1
1.931308806E0,1.823066324E-1,-1.314966828E-1,-1.406908184E-1
1.933310139E0,1.847500950E-1,-1.510443687E-1,-1.364147663E-1
1.935311505E0,1.829174906E-1,-1.754789948E-1,-1.364147663E-1
1.937312838E0,1.823066324E-1,-1.889180094E-1,-1.394690871E-1
1.939314171E0,1.804740280E-1,-2.017461807E-1,-1.382473558E-1
1.941315771E0,1.798631549E-1,-2.151852250E-1,-1.315278262E-1
1.943317104E0,1.792522967E-1,-2.200721502E-1,-1.327495724E-1
1.945318437E0,1.792522967E-1,-2.329003215E-1,-1.303061098E-1
1.947319803E0,1.804740280E-1,-2.402306944E-1,-1.278626472E-1
1.949321136E0,1.761979610E-1,-2.530588806E-1,-1.278626472E-1
1.951322469E0,1.682567298E-1,-2.628327012E-1,-1.217539981E-1
1.953323835E0,1.670349836E-1,-2.713848352E-1,-1.235865951E-1
1.955325168E0,1.615372002E-1,-2.866564691E-1,-1.199214011E-1
1.957326501E0,1.535959691E-1,-2.915433645E-1,-1.168670729E-1
1.959327967E0,1.493199021E-1,-2.976520360E-1,-1.174779385E-1
1.961329300E0,1.371026039E-1,-3.019281030E-1,-1.107584238E-1
1.963330633E0,1.309939474E-1,-3.092584908E-1,-1.052606329E-1
1.965331999E0,1.346591413E-1,-3.196431994E-1,-1.028171703E-1
1.967333332E0,1.181657687E-1,-3.361365497E-1,-1.009845734E-1
1.969334665E0,1.132788509E-1,-3.562951088E-1,-9.182160348E-2
1.971336031E0,1.090027913E-1,-3.617928624E-1,-8.815640956E-2
1.973337364E0,1.065593362E-1,-3.819514513E-1,-8.632381260E-2
1.975338697E0,1.047267392E-1,-3.825622797E-1,-8.082602918E-2
1.977339330E0,9.678549320E-2,-3.935578465E-1,-7.471737266E-2
1.979340663E0,8.334644884E-2,-4.002774060E-1,-6.860871613E-2
1.981341996E0,8.578991890E-2,-4.076077938E-1,-6.250006706E-2
1.983343362E0,8.701164275E-2,-4.069969058E-1,-5.211535469E-2
1.985344695E0,7.296174765E-2,-4.063860476E-1,-4.600670561E-2
1.987346028E0,7.601606846E-2,-4.045534432E-1,-4.600670561E-2
1.989347161E0,7.540520281E-2,-4.033317268E-1,-3.867632151E-2
1.991348494E0,6.807482243E-2,-3.923361599E-1,-3.440026566E-2
1.993349827E0,6.746395677E-2,-3.886709511E-1,-2.584815212E-2
1.995351160E0,6.013357639E-2,-3.746210635E-1,-2.523728833E-2
1.997352493E0,6.013357639E-2,-3.556842208E-1,-1.851776801E-2
1.999353826E0,5.891184136E-2,-3.459104002E-1,-1.485257689E-2
2.001355159E0,5.158146471E-2,-3.275844455E-1,-1.118738670E-2
2.003356492E0,5.158146471E-2,-3.153671324E-1,-7.522194646E-3
2.005357858E0,4.669453949E-2,-2.909325361E-1,1.029918785E-3
2.007359191E0,4.302934557E-2,-2.646653056E-1,7.138571236E-3
2.009360524E0,4.425108060E-2,-2.481719553E-1,9.582032450E-3
2.011361890E0,3.630983084E-2,-2.219047397E-1,1.874501072E-2
2.013363223E0,3.081204183E-2,-1.925832033E-1,2.302106842E-2
2.015364556E0,3.386636823E-2,-1.785333157E-1,2.974058501E-2
2.017365922E0,2.836858109E-2,-1.559312940E-1,2.729712427E-2
2.019367255E0,2.836858109E-2,-1.272206306E-1,2.729712427E-2
2.021368588E0,3.020117804E-2,-1.156141907E-1,2.851885371E-2
2.023369954E0,2.409252524E-2,-8.995784819E-2,2.912972122E-2
2.025371287E0,2.714684978E-2,-8.384919912E-2,2.729712427E-2
2.027372620E0,2.714684978E-2,-6.613410264E-2,2.851885371E-2
2.029373986E0,2.287079394E-2,-4.841900989E-2,3.218404949E-2
2.031375319E0,2.470339090E-2,-4.047776386E-2,3.035145067E-2
2.033376652E0,2.470339090E-2,-2.459526807E-2,2.912972122E-2
2.035378018E0,2.775771730E-2,-1.787574962E-2,3.218404949E-2
2.037379351E0,2.653598599E-2,-7.491040509E-3,3.035145067E-2
2.039380684E0,2.714684978E-2,2.282803645E-3,2.729712427E-2
2.041382050E0,3.325550631E-2,1.327837724E-2,2.668625861E-2
2.043383383E0,3.569896147E-2,1.511097327E-2,3.035145067E-2
2.045384716E0,3.386636823E-2,2.305222116E-2,2.974058501E-2
2.047386082E0,4.058588669E-2,2.855000831E-2,2.974058501E-2
2.049387415E0,3.936415538E-2,2.977173962E-2,2.790798992E-2
2.051388748E0,4.791627079E-2,3.710212186E-2,2.912972122E-2
2.053390148E0,4.852713272E-2,3.832385316E-2,2.607539296E-2
2.055391481E0,5.035972968E-2,4.137817770E-2,3.096231632E-2
2.057392847E0,6.013357639E-2,4.015645012E-2,2.974058501E-2
2.059394213E0,6.135530397E-2,4.015645012E-2,2.790798992E-2
2.061395546E0,7.418347150E-2,3.832385316E-2,2.851885371E-2
2.063396879E0,8.273559064E-2,2.916087396E-2,2.607539296E-2
2.065398212E0,8.762251586E-2,2.610654756E-2,2.668625861E-2
2.067399545E0,9.800721705E-2,2.366308868E-2,2.241020277E-2
2.069400878E0,1.090027913E-1,2.244135737E-2,1.691241376E-2
2.071402211E0,1.102245227E-1,2.977173962E-2,1.752328128E-2
2.073403544E0,1.181657687E-1,3.526952863E-2,1.324722357E-2
2.075404910E0,1.206092387E-1,3.526952863E-2,1.263635792E-2
2.077406243E0,1.279396117E-1,5.115202442E-2,1.446895394E-2
2.079407576E0,1.285504699E-1,7.131057978E-2,8.971166797E-3
2.081408942E0,1.291613430E-1,7.925182581E-2,7.749436423E-3
2.083410275E0,1.316048056E-1,9.269085526E-2,1.080376282E-2
2.085411608E0,1.371026039E-1,1.134602800E-1,4.190535401E-4
2.087412974E0,1.371026039E-1,1.183471978E-1,-1.918116759E-4
2.089414307E0,1.407677978E-1,1.348405629E-1,-8.026768919E-4
2.091415640E0,1.426003873E-1,1.543882489E-1,-5.689599086E-3
2.093417006E0,1.413786411E-1,1.611077785E-1,-5.689599086E-3
2.095418339E0,1.462655813E-1,1.733250767E-1,-3.246137872E-3
2.097419672E0,1.426003873E-1,1.898184419E-1,-6.911329459E-3
2.099421038E0,1.450438350E-1,2.002031356E-1,-9.354790673E-3
2.101423104E0,1.432112455E-1,2.209725678E-1,-1.301998179E-2
2.103424437E0,1.419895142E-1,2.246377617E-1,-1.240911707E-2
2.105425803E0,1.340482682E-1,2.399093807E-1,-1.301998179E-2
2.107427136E0,1.346591413E-1,2.576244771E-1,-1.851776801E-2
2.109428469E0,1.322156638E-1,2.631222606E-1,-2.096122876E-2
2.111429835E0,1.248852909E-1,2.851133943E-1,-2.462642081E-2
2.113431135E0,1.236635596E-1,2.948872745E-1,-2.645901591E-2
2.115432468E0,1.236635596E-1,3.083263040E-1,-2.890247665E-2
2.117433801E0,1.206092387E-1,3.260413706E-1,-3.073507361E-2
2.119435134E0,1.206092387E-1,3.388695717E-1,-3.806545585E-2
2.121436467E0,1.175549105E-1,3.535303473E-1,-3.745459020E-2
2.123443467E0,1.120571196E-1,3.669693470E-1,-3.989805281E-2
2.125444833E0,1.090027913E-1,3.730779886E-1,-4.173064977E-2
2.127446166E0,1.053375974E-1,3.877387643E-1,-4.478497431E-2
2.129447532E0,1.022832766E-1,4.036212862E-1,-5.272622406E-2
2.131451165E0,9.678549320E-2,4.121733606E-1,-4.845016450E-2
2.133452498E0,9.189856797E-2,4.262233078E-1,-5.333708972E-2
2.135453831E0,9.250943363E-2,4.408840537E-1,-5.455881730E-2
2.137455164E0,9.006597102E-2,4.457709789E-1,-5.455881730E-2
2.139456497E0,8.823337406E-2,4.622643292E-1,-5.455881730E-2
2.141457830E0,8.090299368E-2,4.726490378E-1,-5.333708972E-2
2.143459163E0,7.845953107E-2,4.799794257E-1,-5.516968668E-2
2.145460529E0,7.174001634E-2,5.001379848E-1,-5.089362711E-2
2.147461862E0,7.479434460E-2,5.019705892E-1,-5.089362711E-2
2.149463195E0,7.418347150E-2,5.129660964E-1,-5.333708972E-2
2.151465195E0,7.112915069E-2,5.257943273E-1,-4.111978039E-2
2.153466261E0,6.807482243E-2,5.251834989E-1,-4.295237735E-2
2.155467594E0,6.868569553E-2,5.337355733E-1,-3.440026566E-2
2.157468960E0,6.624222547E-2,5.435094237E-1,-3.440026566E-2
2.159470293E0,7.112915069E-2,5.477854609E-1,-3.378940374E-2
2.161471459E0,6.685309857E-2,5.483963490E-1,-2.706988342E-2
2.163472825E0,7.112915069E-2,5.575593114E-1,-1.973949932E-2
2.165474158E0,6.746395677E-2,5.624462366E-1,-2.218296006E-2
2.167475491E0,6.807482243E-2,5.728309155E-1,-1.729603857E-2
2.169477591E0,7.174001634E-2,5.758852363E-1,-9.354790673E-3
2.171478924E0,6.624222547E-2,5.813830495E-1,-5.689599086E-3
2.173480257E0,6.990741938E-2,5.868808627E-1,-8.026768919E-4
2.175481623E0,7.235087454E-2,5.826048255E-1,4.190535401E-4
2.177482956E0,7.051828504E-2,5.990981460E-1,7.138571236E-3
2.179484289E0,7.357260585E-2,5.942112207E-1,1.202549320E-2
2.181485655E0,7.662694156E-2,6.003198624E-1,1.446895394E-2
2.185482655E0,8.090299368E-2,6.045959592E-1,2.118847333E-2
2.187484021E0,8.029212803E-2,6.045959592E-1,2.179933712E-2
2.189485354E0,8.212472498E-2,6.107046008E-1,2.118847333E-2
2.193485753E0,8.273559064E-2,6.174241304E-1,2.118847333E-2
2.195487086E0,8.334644884E-2,6.192567348E-1,2.790798992E-2
2.197488486E0,8.151385188E-2,6.149806380E-1,2.546452917E-2
2.199489852E0,8.517904580E-2,6.210892797E-1,2.607539296E-2
2.201491185E0,9.189856797E-2,6.241436005E-1,3.401664272E-2
2.203492518E0,8.823337406E-2,6.259762049E-1,3.035145067E-2
2.205493851E0,8.884423971E-2,6.284196973E-1,2.974058501E-2
2.207495184E0,9.617462009E-2,6.339174509E-1,3.157318011E-2
2.209496517E0,9.312029928E-2,6.333065629E-1,3.035145067E-2
2.211497217E0,9.678549320E-2,6.443021894E-1,2.729712427E-2
2.213498817E0,9.739635140E-2,6.504108310E-1,3.035145067E-2
2.215500183E0,9.800721705E-2,6.504108310E-1,2.424279787E-2
2.217501516E0,9.556376189E-2,6.601846814E-1,2.424279787E-2
2.219502849E0,9.495289624E-2,6.601846814E-1,2.057760581E-2
2.221503649E0,9.800721705E-2,6.669041514E-1,1.752328128E-2
2.223504982E0,1.022832766E-1,6.766780615E-1,1.324722357E-2
2.225506315E0,9.983981401E-2,6.754562855E-1,1.324722357E-2
2.227507681E0,1.010615453E-1,6.858410239E-1,1.019289810E-2
2.229508281E0,1.028941423E-1,6.943930984E-1,5.916840397E-3
2.231509381E0,1.065593362E-1,6.907278895E-1,6.527706049E-3
2.233510747E0,1.059484705E-1,6.901170611E-1,1.029918785E-3
2.235512080E0,9.922894835E-2,7.023343444E-1,1.640783972E-3
2.237513446E0,1.004506871E-1,6.943930984E-1,-4.467868246E-3
2.239515212E0,1.004506871E-1,6.925605536E-1,-3.857003292E-3
2.241516545E0,9.006597102E-2,6.913387775E-1,-8.743925020E-3
2.243517678E0,9.128770232E-2,6.956148744E-1,-6.911329459E-3
2.245519044E0,8.823337406E-2,6.950039864E-1,-1.179825142E-2
2.247520377E0,8.640077710E-2,6.895062327E-1,-1.485257689E-2
2.249521710E0,8.456818759E-2,6.937822700E-1,-2.096122876E-2
2.251523076E0,8.578991890E-2,6.876735687E-1,-1.851776801E-2
2.253524409E0,8.517904580E-2,6.907278895E-1,-1.668517292E-2
2.255525742E0,8.090299368E-2,6.901170611E-1,-1.790690422E-2
2.257527042E0,7.540520281E-2,6.882844567E-1,-2.096122876E-2
2.259528375E0,7.357260585E-2,6.840084195E-1,-2.096122876E-2
2.261529808E0,6.929655373E-2,6.827867031E-1,-2.340469137E-2
2.263531174E0,6.746395677E-2,6.791214943E-1,-2.340469137E-2
2.265532507E0,6.502050161E-2,6.815649271E-1,-2.279382572E-2
2.267533840E0,5.707925186E-2,6.803432107E-1,-1.729603857E-2
2.269534940E0,5.524665490E-2,6.803432107E-1,-2.157209627E-2
2.271537006E0,4.608367383E-2,6.827867031E-1,-1.668517292E-2
2.273538339E0,4.486194253E-2,6.778997779E-1,-1.546344254E-2
2.275544505E0,3.630983084E-2,6.711802483E-1,-1.240911707E-2
2.277545838E0,3.203377500E-2,6.656824350E-1,-1.301998179E-2
2.279547171E0,1.798387244E-2,6.601846814E-1,-1.057652105E-2
2.281548504E0,1.615127735E-2,6.614064574E-1,-8.133059368E-3
2.283549837E0,6.377433427E-3,6.540760398E-1,-6.300464272E-3
2.285551203E0,-5.229006521E-3,6.473565102E-1,-7.522194646E-3
2.287552536E0,-1.194852404E-2,6.443021894E-1,-3.857003292E-3
2.289553869E0,-1.988977194E-2,6.412478685E-1,-6.911329459E-3
2.291555302E0,-2.111150324E-2,6.339174509E-1,-6.300464272E-3
2.293556635E0,-3.088534810E-2,6.308631301E-1,-8.026768919E-4
2.295557968E0,-3.577227145E-2,6.186457872E-1,5.916840397E-3
2.297559301E0,-3.882659599E-2,6.204784513E-1,3.473379882E-3
2.299560234E0,-4.676784202E-2,6.058176756E-1,5.305975210E-3
2.301561567E0,-5.593081936E-2,6.119263172E-1,1.019289810E-2
2.303563133E0,-6.326120347E-2,6.131480932E-1,8.971166797E-3
2.305564466E0,-6.570466608E-2,6.217001081E-1,1.324722357E-2
2.307565799E0,-7.364591211E-2,6.204784513E-1,1.263635792E-2
2.309567165E0,-7.120245695E-2,6.192567348E-1,1.263635792E-2
2.311568498E0,-7.303504646E-2,6.204784513E-1,1.630154997E-2
2.313569831E0,-7.608937472E-2,6.302522421E-1,1.752328128E-2
2.315571197E0,-8.158716559E-2,6.345283389E-1,1.813414507E-2
2.317572297E0,-8.219803125E-2,6.485782266E-1,2.363193408E-2
2.319573630E0,-7.547850907E-2,6.577411890E-1,2.607539296E-2
2.321574896E0,-7.792197168E-2,6.693476439E-1,2.790798992E-2
2.323576229E0,-7.914370298E-2,6.797323823E-1,2.668625861E-2
2.325577562E0,-7.853283733E-2,6.864519119E-1,2.546452917E-2
2.327578928E0,-7.914370298E-2,7.035561204E-1,2.912972122E-2
2.329580528E0,-7.547850907E-2,7.176060081E-1,2.790798992E-2
2.331581461E0,-6.998071820E-2,7.224929333E-1,3.035145067E-2
2.333582827E0,-7.242418826E-2,7.359319329E-1,2.974058501E-2
2.337580660E0,-6.203947589E-2,7.676969767E-1,2.729712427E-2
2.339582026E0,-5.837428197E-2,7.848011851E-1,3.218404949E-2
2.341583359E0,-5.837428197E-2,7.957967520E-1,2.668625861E-2
2.343584692E0,-5.287649482E-2,8.129010201E-1,2.912972122E-2
2.345586025E0,-4.676784202E-2,8.238965273E-1,2.424279787E-2
2.347587358E0,-4.249178618E-2,8.318378329E-1,2.241020277E-2
2.349588691E0,-3.455053642E-2,8.391681910E-1,1.996674202E-2
2.351590191E0,-3.027448058E-2,8.519963622E-1,1.691241376E-2
2.353591524E0,-3.210707754E-2,8.660462499E-1,1.569068432E-2
2.355592890E0,-2.844188549E-2,8.874264956E-1,1.263635792E-2
2.357594223E0,-2.294410020E-2,8.984221220E-1,1.019289810E-2
2.359595556E0,-2.660928853E-2,9.136937261E-1,7.749436423E-3
2.361596922E0,-2.599842474E-2,9.198024273E-1,1.640783972E-3
2.363598255E0,-2.966361679E-2,9.399609566E-1,-2.635272685E-3
2.365599588E0,-2.966361679E-2,9.479022026E-1,-3.857003292E-3
2.367600954E0,-2.966361679E-2,9.760020375E-1,-9.965655394E-3
2.369602287E0,-2.783101983E-2,9.808889031E-1,-1.240911707E-2
2.371603620E0,-2.355496399E-2,9.937170744E-1,-1.424171217E-2
2.373604986E0,-2.050063759E-2,1.001047492E0,-2.157209627E-2
2.375606319E0,-2.294410020E-2,1.010210395E0,-2.218296006E-2
2.377607885E0,-1.805717684E-2,1.018151760E0,-2.951334417E-2
2.379609251E0,-1.072679367E-2,1.043197155E0,-3.195680305E-2
2.381610584E0,-9.505063295E-3,1.050527573E0,-3.928718716E-2
2.383617450E0,-7.672467735E-3,1.064577460E0,-4.173064977E-2
2.385618816E0,-4.618141335E-3,1.080459952E0,-4.478497431E-2
2.387620149E0,-2.785545541E-3,1.089622974E0,-4.539583996E-2
2.389621482E0,-8.283332922E-3,1.117722750E0,-5.394795164E-2
2.391622515E0,-4.007276148E-3,1.121998787E0,-5.883487687E-2
2.393623848E0,-6.450736895E-3,1.156207323E0,-5.944573879E-2
2.395630981E0,-2.111150324E-2,1.208741665E0,-5.639141425E-2
2.397632347E0,-2.722015604E-2,1.233176231E0,-5.028276145E-2
2.399633980E0,-2.538755909E-2,1.251502156E0,-5.944573879E-2
2.401635313E0,-7.061602082E-3,1.231954575E0,-7.105217874E-2
2.403636679E0,2.712241607E-3,1.221569777E0,-7.166304439E-2
2.405638012E0,2.470339090E-2,1.189804792E0,-7.166304439E-2
2.407639345E0,4.058588669E-2,1.176365852E0,-8.326948434E-2
2.409640711E0,4.974886775E-2,1.166591883E0,-8.326948434E-2
2.411642044E0,5.952271074E-2,1.174533248E0,-8.876727521E-2
2.413643377E0,6.440962851E-2,1.186139703E0,-8.876727521E-2
2.415644710E0,6.563135982E-2,1.195302606E0,-8.693467826E-2
2.417646043E0,5.769011378E-2,1.209352493E0,-8.998900652E-2
2.419647143E0,5.402491987E-2,1.219126344E0,-8.815640956E-2
2.421648476E0,4.913800210E-2,1.227678418E0,-8.937813342E-2
2.423650676E0,4.852713272E-2,1.239284873E0,-8.754553646E-2
2.425652042E0,5.097059533E-2,1.240506768E0,-8.571294695E-2
2.427653375E0,5.035972968E-2,1.241117597E0,-8.265862614E-2
2.429654708E0,4.730540514E-2,1.242950082E0,-8.265862614E-2
2.431656074E0,5.402491987E-2,1.241728425E0,-8.021515608E-2
2.433657407E0,5.035972968E-2,1.239895701E0,-7.532823831E-2
2.435660440E0,6.013357639E-2,1.231343627E0,-6.860871613E-2
2.437661806E0,5.402491987E-2,1.234398007E0,-7.166304439E-2
2.439663139E0,5.158146471E-2,1.235619783E0,-7.044131309E-2
2.441664472E0,5.158146471E-2,1.231343627E0,-6.921958178E-2
2.445661638E0,4.791627079E-2,1.231954575E0,-6.127833575E-2
2.447662971E0,4.425108060E-2,1.230732799E0,-6.005660444E-2
2.449664337E0,4.058588669E-2,1.232565403E0,-5.639141425E-2
2.451665670E0,4.486194253E-2,1.232565403E0,-5.089362711E-2
2.453667303E0,4.364021122E-2,1.230732799E0,-5.211535469E-2
2.457664202E0,3.997502103E-2,1.233787060E0,-4.173064977E-2
2.459665235E0,3.936415538E-2,1.235008955E0,-4.173064977E-2
2.461673235E0,3.753155842E-2,1.230732799E0,-3.806545585E-2
2.463674568E0,3.569896147E-2,1.228900313E0,-4.050891846E-2
2.465675901E0,3.875329345E-2,1.234398007E0,-3.440026566E-2
2.467677267E0,4.119675234E-2,1.237452269E0,-3.317853436E-2
2.469678467E0,3.875329345E-2,1.240506768E0,-3.440026566E-2
2.471679800E0,4.058588669E-2,1.241117597E0,-2.706988342E-2
2.473681166E0,4.058588669E-2,1.243561029E0,-2.401555702E-2
2.475682499E0,4.058588669E-2,1.248447895E0,-1.973949932E-2
2.477683832E0,4.486194253E-2,1.242339253E0,-2.218296006E-2
2.479685432E0,4.974886775E-2,1.238674045E0,-1.851776801E-2
2.481689532E0,4.730540514E-2,1.241728425E0,-1.729603857E-2
2.483689998E0,5.341405794E-2,1.239895701E0,-8.743925020E-3
2.485691331E0,5.585751683E-2,1.240506768E0,-6.911329459E-3
2.487692664E0,6.013357639E-2,1.241728425E0,-1.918116759E-4
2.489693997E0,6.440962851E-2,1.245393515E0,1.640783972E-3
2.491695330E0,6.379877031E-2,1.250280499E0,1.029918785E-3
2.493696663E0,7.112915069E-2,1.251502156E0,1.324722357E-2
2.495697196E0,7.051828504E-2,1.264941335E0,1.263635792E-2
2.497698529E0,7.479434460E-2,1.265552163E0,1.507981960E-2
2.499699862E0,7.601606846E-2,1.269217253E0,1.935587637E-2
2.501701228E0,8.151385188E-2,1.272882581E0,2.241020277E-2
2.503702561E0,8.212472498E-2,1.282656431E0,2.607539296E-2
2.505703894E0,9.128770232E-2,1.282045484E0,3.157318011E-2
2.507705260E0,8.945510536E-2,1.295484543E0,3.707096726E-2
2.509706593E0,9.006597102E-2,1.294873714E0,3.768183663E-2
2.511707926E0,9.373116493E-2,1.302814960E0,4.623394832E-2
2.513709492E0,9.250943363E-2,1.303425789E0,4.623394832E-2
2.515710825E0,9.373116493E-2,1.306480050E0,4.379048571E-2
2.517711925E0,9.800721705E-2,1.310756087E0,4.440135136E-2
2.519713291E0,9.861809015E-2,1.308312774E0,4.928827286E-2
2.523709324E0,1.083919331E-1,1.306480050E0,4.989913851E-2
2.525710690E0,1.102245227E-1,1.304036617E0,4.989913851E-2
2.527712023E0,1.126679853E-1,1.297317147E0,5.417519435E-2
2.529713489E0,1.138897166E-1,1.294873714E0,5.234259740E-2
2.531714855E0,1.114462614E-1,1.287543297E0,5.112086982E-2
2.533716188E0,1.181657687E-1,1.275936842E0,5.295346305E-2
2.535717521E0,1.187766418E-1,1.265552163E0,5.112086982E-2
2.537718654E0,1.224418357E-1,1.257610798E0,4.989913851E-2
2.539720087E0,1.193875074E-1,1.244782686E0,4.684481025E-2
2.543720019E0,1.218309626E-1,1.216071963E0,4.440135136E-2
2.545721352E0,1.254961491E-1,1.201411247E0,4.989913851E-2
2.547723418E0,1.236635596E-1,1.198356986E0,4.867740721E-2
2.549724784E0,1.230526939E-1,1.176976681E0,4.867740721E-2
2.551726117E0,1.248852909E-1,1.159872413E0,4.928827286E-2
2.553727450E0,1.273287535E-1,1.154374599E0,5.051000044E-2
2.555727916E0,1.230526939E-1,1.142768145E0,4.684481025E-2
2.557729249E0,1.267178953E-1,1.124442220E0,4.806654528E-2
2.559730582E0,1.254961491E-1,1.114668489E0,4.928827286E-2
2.561731815E0,1.236635596E-1,1.101229429E0,4.379048571E-2
2.563733148E0,1.279396117E-1,1.101840258E0,4.989913851E-2
2.565734481E0,1.267178953E-1,1.089012027E0,4.989913851E-2
2.567735814E0,1.279396117E-1,1.078627348E0,4.379048571E-2
2.569737147E0,1.285504699E-1,1.076794744E0,4.684481025E-2
2.571738513E0,1.328265369E-1,1.068242669E0,5.051000044E-2
2.573739346E0,1.316048056E-1,1.059079766E0,4.623394832E-2
2.575740679E0,1.309939474E-1,1.062744856E0,4.806654528E-2
2.577742279E0,1.291613430E-1,1.060301423E0,4.317962006E-2
2.579743612E0,1.358808577E-1,1.058468819E0,4.684481025E-2
2.581744945E0,1.352699995E-1,1.052360058E0,4.195788875E-2
2.583746311E0,1.371026039E-1,1.053581953E0,4.440135136E-2
2.585747644E0,1.480981708E-1,1.054192781E0,4.623394832E-2
2.587748977E0,1.548176855E-1,1.062134027E0,4.562308267E-2
2.589750343E0,1.609263420E-1,1.063355684E0,4.684481025E-2
2.591751676E0,1.572611481E-1,1.062744856E0,4.928827286E-2
2.593753009E0,1.560394168E-1,1.056636214E0,4.806654528E-2
2.595754375E0,1.548176855E-1,1.041975498E0,4.684481025E-2
2.597755941E0,1.517633647E-1,1.034034133E0,4.256875440E-2
2.599757174E0,1.505416334E-1,1.024871230E0,4.562308267E-2
2.601764574E0,1.480981708E-1,1.011432171E0,4.317962006E-2
2.603765907E0,1.529850960E-1,1.008377910E0,4.440135136E-2
2.605767240E0,1.493199021E-1,1.001658320E0,4.256875440E-2
2.607767873E0,1.505416334E-1,9.986039996E-1,4.256875440E-2
2.609769206E0,1.578720063E-1,9.967713952E-1,4.134702682E-2
2.611770539E0,1.566502899E-1,9.986039996E-1,4.012529552E-2
2.613771905E0,1.621480733E-1,1.001658320E0,4.195788875E-2
2.615773238E0,1.664241403E-1,1.003490925E0,4.195788875E-2
2.617774571E0,1.627589464E-1,1.011432171E0,4.440135136E-2
2.619775937E0,1.700893193E-1,1.007156134E0,4.501221329E-2
2.621777137E0,1.749762446E-1,1.016929984E0,4.501221329E-2
2.623778470E0,1.780305654E-1,1.020595193E0,4.440135136E-2
2.625779836E0,1.841392219E-1,1.016929984E0,4.623394832E-2
2.627780936E0,1.871935427E-1,1.022427678E0,4.440135136E-2
2.629782269E0,1.902478784E-1,1.023038626E0,5.051000044E-2
2.631783602E0,1.920804679E-1,1.015708208E0,4.684481025E-2
2.633784935E0,1.859718114E-1,1.016319036E0,4.745567590E-2
2.635786301E0,1.884152889E-1,1.008377910E0,4.745567590E-2
2.637787634E0,1.871935427E-1,1.000436544E0,4.867740721E-2
2.639788967E0,1.914696097E-1,9.839432240E-1,5.173173547E-2
2.641790333E0,1.914696097E-1,9.784454703E-1,5.295346305E-2
2.643791666E0,1.853609532E-1,9.564543366E-1,5.478606001E-2
2.645792999E0,1.835283488E-1,9.369066358E-1,5.845125020E-2
2.647794365E0,1.816957593E-1,9.222458601E-1,5.906211957E-2
2.649795698E0,1.829174906E-1,9.026981592E-1,6.455990672E-2
2.651797031E0,1.761979610E-1,8.855939507E-1,6.883595884E-2
2.653798397E0,1.731436402E-1,8.745983839E-1,6.700336188E-2
2.655799730E0,1.737545133E-1,8.483311534E-1,6.944682449E-2
2.657801230E0,1.761979610E-1,8.287835121E-1,7.433374971E-2
2.659802596E0,1.682567298E-1,8.171770573E-1,7.860980183E-2
2.661803529E0,1.694784611E-1,7.957967520E-1,7.922067493E-2
2.663804862E0,1.725327820E-1,7.866337895E-1,8.349672705E-2
2.665806228E0,1.682567298E-1,7.652534842E-1,8.594018221E-2
2.667807328E0,1.688675880E-1,7.499818802E-1,9.143797308E-2
2.669808661E0,1.688675880E-1,7.414297462E-1,9.204884619E-2
2.671810027E0,1.676458567E-1,7.163842916E-1,9.693576396E-2
2.673811360E0,1.694784611E-1,7.017235160E-1,9.754662961E-2
2.675812693E0,1.719219238E-1,6.907278895E-1,9.693576396E-2
2.677814059E0,1.713110507E-1,6.778997779E-1,9.937922657E-2
2.679815392E0,1.743653715E-1,6.614064574E-1,1.018226817E-1
2.681816958E0,1.749762446E-1,6.620172858E-1,1.036552787E-1
2.683818324E0,1.768088341E-1,6.516325474E-1,1.054878756E-1
2.685819657E0,1.755871177E-1,6.522434354E-1,1.067096069E-1
2.687821223E0,1.749762446E-1,6.498000026E-1,1.134291217E-1
2.689822589E0,1.835283488E-1,6.375826597E-1,1.170943156E-1
2.691823922E0,1.865826845E-1,6.302522421E-1,1.170943156E-1
2.693825255E0,2.018543035E-1,5.984873176E-1,1.128182635E-1
2.695826588E0,2.061303705E-1,5.819938779E-1,1.085421965E-1
2.697827921E0,2.140716165E-1,5.764961839E-1,1.024335474E-1
2.699829254E0,2.226237357E-1,5.709983706E-1,9.327057004E-2
2.701830587E0,2.287323773E-1,5.691657662E-1,8.777277917E-2
2.703831920E0,2.281215191E-1,5.746635199E-1,8.349672705E-2
2.705833253E0,2.305649668E-1,5.807722211E-1,8.105327189E-2
2.707834586E0,2.317867130E-1,5.819938779E-1,8.105327189E-2
2.709836186E0,2.336193025E-1,5.801613331E-1,7.922067493E-2
2.711837552E0,2.323975712E-1,5.832156539E-1,7.738807797E-2
2.713838885E0,2.323975712E-1,5.856591463E-1,7.738807797E-2
2.715840218E0,2.378953546E-1,5.881025791E-1,7.922067493E-2
2.717841418E0,2.421714216E-1,5.929895043E-1,8.410759270E-2
2.719842751E0,2.415605485E-1,5.929895043E-1,8.594018221E-2
2.723839817E0,2.543887198E-1,5.642787814E-1,9.204884619E-2
2.725841150E0,2.604973614E-1,5.514506698E-1,8.410759270E-2
2.727842716E0,2.666060328E-1,5.337355733E-1,7.311201841E-2
2.729844082E0,2.647734284E-1,5.380116105E-1,6.578163058E-2
2.731845415E0,2.611082494E-1,5.441203117E-1,6.150557846E-2
2.733846748E0,2.586647570E-1,5.496180654E-1,6.272730976E-2
2.735848114E0,2.635516822E-1,5.538941026E-1,6.455990672E-2
2.737849447E0,2.501126826E-1,5.673331022E-1,6.578163058E-2
2.739850780E0,2.513343990E-1,5.722200871E-1,6.150557846E-2
2.741852146E0,2.488909364E-1,5.764961839E-1,6.272730976E-2
2.743853479E0,2.458366156E-1,5.862699747E-1,6.517077237E-2
2.745854812E0,2.372844964E-1,6.015416384E-1,7.555548102E-2
2.747856178E0,2.214019895E-1,6.345283389E-1,9.021624923E-2
2.749857511E0,2.055194974E-1,6.742345691E-1,9.571403265E-2
2.751858844E0,1.847500950E-1,6.980583072E-1,9.754662961E-2
2.753860210E0,1.829174906E-1,6.913387775E-1,9.388143569E-2
2.755861543E0,1.908587366E-1,6.699584723E-1,7.433374971E-2
2.757862876E0,1.926913261E-1,6.552977562E-1,6.578163058E-2
2.759864242E0,2.091846913E-1,6.265870929E-1,6.822510064E-2
2.761868442E0,2.226237357E-1,5.966546535E-1,5.417519435E-2
2.763869775E0,2.415605485E-1,5.722200871E-1,4.256875440E-2
2.765871141E0,2.482800782E-1,5.600027442E-1,3.646010160E-2
2.767872474E0,2.549995780E-1,5.496180654E-1,2.668625861E-2
2.769873540E0,2.586647570E-1,5.502289534E-1,3.218404949E-2
2.771874873E0,2.513343990E-1,5.636679530E-1,3.218404949E-2
2.773876206E0,2.433931381E-1,5.764961839E-1,3.035145067E-2
2.775877539E0,2.342301607E-1,5.850481987E-1,2.241020277E-2
2.777878872E0,2.317867130E-1,5.862699747E-1,1.385808829E-2
2.779880205E0,2.305649668E-1,5.844373703E-1,1.080376282E-2
2.781881571E0,2.305649668E-1,5.826048255E-1,1.202549320E-2
2.783882904E0,2.311758399E-1,5.813830495E-1,1.263635792E-2
2.785884237E0,2.287323773E-1,5.740526915E-1,1.385808829E-2
2.787885437E0,2.311758399E-1,5.746635199E-1,1.263635792E-2
2.789886770E0,2.262889296E-1,5.764961839E-1,1.446895394E-2
2.791888103E0,2.220128626E-1,5.832156539E-1,1.446895394E-2
2.793889469E0,2.159042060E-1,5.948221087E-1,1.752328128E-2
2.795890802E0,2.104064226E-1,6.033741832E-1,1.569068432E-2
2.797892135E0,2.049086243E-1,6.076502800E-1,1.507981960E-2
2.799898401E0,1.920804679E-1,6.198675632E-1,1.507981960E-2
2.801899734E0,1.853609532E-1,6.265870929E-1,1.446895394E-2
2.803900834E0,1.768088341E-1,6.302522421E-1,1.385808829E-2
2.805902200E0,1.743653715E-1,6.339174509E-1,1.569068432E-2
2.807903533E0,1.676458567E-1,6.351392269E-1,1.935587637E-2
2.809904866E0,1.621480733E-1,6.314740181E-1,1.385808829E-2
2.811906232E0,1.627589464E-1,6.296414137E-1,1.874501072E-2
2.813907565E0,1.597046107E-1,6.284196973E-1,1.691241376E-2
2.815909365E0,1.639806628E-1,6.229218841E-1,1.141462848E-2
2.817910465E0,1.682567298E-1,6.210892797E-1,1.324722357E-2
2.819911798E0,1.639806628E-1,6.192567348E-1,1.752328128E-2
2.823911664E0,1.578720063E-1,6.162024140E-1,1.813414507E-2
2.825912997E0,1.517633647E-1,6.149806380E-1,1.141462848E-2
2.827914330E0,1.523742229E-1,6.076502800E-1,1.141462848E-2
2.829915696E0,1.487090290E-1,6.076502800E-1,1.080376282E-2
2.831917029E0,1.444329768E-1,6.015416384E-1,8.971166797E-3
2.833918362E0,1.474872977E-1,5.984873176E-1,7.138571236E-3
2.835919462E0,1.438221186E-1,5.942112207E-1,6.527706049E-3
2.837920795E0,1.383243203E-1,5.942112207E-1,4.695110489E-3
2.839922128E0,1.364917308E-1,5.905460119E-1,1.640783972E-3
2.841923461E0,1.322156638E-1,5.856591463E-1,1.029918785E-3
2.843924794E0,1.291613430E-1,5.862699747E-1,9.582032450E-3
2.845926127E0,1.187766418E-1,5.795505047E-1,5.305975210E-3
2.847927627E0,1.163331792E-1,5.838265419E-1,5.916840397E-3
2.849935093E0,1.151114479E-1,5.789395571E-1,3.473379882E-3
2.851937159E0,1.077810675E-1,5.801613331E-1,3.473379882E-3
2.853938259E0,1.047267392E-1,5.783287287E-1,1.029918785E-3
2.855939592E0,9.373116493E-2,5.777178407E-1,-2.024407499E-3
2.857940958E0,9.434202313E-2,5.752744079E-1,-1.413542195E-3
2.861938724E0,7.540520281E-2,5.771070123E-1,-3.246137872E-3
2.863940324E0,7.296174765E-2,5.764961839E-1,-6.300464272E-3
2.865941824E0,6.502050161E-2,5.691657662E-1,-5.078733433E-3
2.867943157E0,6.135530397E-2,5.703874230E-1,-5.689599086E-3
2.869944523E0,5.341405794E-2,5.709983706E-1,-8.743925020E-3
2.871950123E0,4.852713272E-2,5.709983706E-1,-9.354790673E-3
2.873951456E0,4.058588669E-2,5.630571246E-1,-6.300464272E-3
2.875952356E0,4.119675234E-2,5.630571246E-1,-9.965655394E-3
2.877953956E0,2.714684978E-2,5.636679530E-1,-1.485257689E-2
2.879955289E0,2.775771730E-2,5.575593114E-1,-1.424171217E-2
2.881957355E0,2.531425655E-2,5.538941026E-1,-1.485257689E-2
2.883958655E0,1.431868132E-2,5.551158190E-1,-1.668517292E-2
2.885959988E0,1.248608623E-2,5.477854609E-1,-2.035036497E-2
2.887961354E0,8.820894174E-3,5.538941026E-1,-2.096122876E-2
2.889962687E0,2.712241607E-3,5.404551029E-1,-2.645901591E-2
2.891964020E0,2.687807137E-4,5.374007821E-1,-2.462642081E-2
2.893965386E0,-3.396410728E-3,5.312921405E-1,-2.401555702E-2
2.895966752E0,-1.011592895E-2,5.288486481E-1,-3.073507361E-2
2.897968085E0,-1.011592895E-2,5.282378197E-1,-2.890247665E-2
2.899969451E0,-1.439198479E-2,5.221291780E-1,-2.706988342E-2
2.901974051E0,-1.744631119E-2,5.202965140E-1,-3.012420796E-2
2.903975384E0,-2.172236890E-2,5.172421932E-1,-3.195680305E-2
2.905976750E0,-2.905275114E-2,5.086901188E-1,-2.890247665E-2
2.907978083E0,-3.027448058E-2,5.123552680E-1,-3.378940374E-2
2.911973916E0,-4.615698010E-2,5.031923056E-1,-3.745459020E-2
2.913980316E0,-4.615698010E-2,4.952510595E-1,-3.623285890E-2
2.915981449E0,-4.860043898E-2,4.934184551E-1,-4.234151542E-2
2.917982782E0,-5.104389787E-2,4.830337465E-1,-3.928718716E-2
2.919984115E0,-4.982217029E-2,4.775359631E-1,-3.501113132E-2
2.921985481E0,-5.348736048E-2,4.720381796E-1,-4.295237735E-2
2.923986814E0,-5.776341632E-2,4.640969336E-1,-4.356324300E-2
2.925989314E0,-5.287649482E-2,4.622643292E-1,-4.845016450E-2
2.927990680E0,-6.081774458E-2,4.537122250E-1,-4.845016450E-2
2.929992013E0,-5.776341632E-2,4.512687624E-1,-5.089362711E-2
2.933990445E0,-6.509380043E-2,4.476035833E-1,-5.089362711E-2
2.935991778E0,-6.509380043E-2,4.463818371E-1,-5.211535469E-2
2.937993111E0,-6.020687893E-2,4.427166581E-1,-4.967189953E-2
2.939994477E0,-6.326120347E-2,4.457709789E-1,-4.600670561E-2
2.941995110E0,-6.631553173E-2,4.482144415E-1,-4.906103015E-2
2.943996443E0,-7.181331515E-2,4.463818371E-1,-5.150449276E-2
2.945997809E0,-6.631553173E-2,4.463818371E-1,-4.845016450E-2
2.947999142E0,-7.059159130E-2,4.457709789E-1,-4.478497431E-2
2.950000475E0,-7.486764342E-2,4.457709789E-1,-4.906103015E-2
2.952001841E0,-7.303504646E-2,4.469926953E-1,-4.845016450E-2
2.954003174E0,-7.547850907E-2,4.482144415E-1,-4.783930257E-2
2.956004740E0,-7.731110603E-2,4.482144415E-1,-5.089362711E-2
2.958006106E0,-7.608937472E-2,4.506579041E-1,-4.967189953E-2
2.960007439E0,-8.464148641E-2,4.476035833E-1,-4.417410865E-2
2.964006838E0,-8.708494902E-2,4.512687624E-1,-4.356324300E-2
2.966008171E0,-9.197186679E-2,4.561556578E-1,-4.417410865E-2
2.968009504E0,-9.441532940E-2,4.531013370E-1,-3.928718716E-2
2.970010870E0,-9.441532940E-2,4.506579041E-1,-3.623285890E-2
2.972012203E0,-9.258273244E-2,4.482144415E-1,-3.562199324E-2
2.976010269E0,-1.023565829E-1,4.524904788E-1,-3.501113132E-2
2.978011602E0,-1.023565829E-1,4.579882920E-1,-3.012420796E-2
2.980012935E0,-1.072435006E-1,4.579882920E-1,-3.134594113E-2
2.982014268E0,-1.121304259E-1,4.598208666E-1,-3.012420796E-2
2.984015601E0,-1.151847541E-1,4.500470161E-1,-2.645901591E-2
2.986015601E0,-1.200716719E-1,4.531013370E-1,-3.073507361E-2
2.988016934E0,-1.231260002E-1,4.359971285E-1,-3.317853436E-2
2.990018267E0,-1.267911941E-1,4.250015616E-1,-2.890247665E-2
2.992019633E0,-1.267911941E-1,4.182820320E-1,-3.195680305E-2
2.994020966E0,-1.328998357E-1,3.987343311E-1,-2.951334417E-2
2.996022299E0,-1.335107088E-1,3.865170181E-1,-2.951334417E-2
2.998023665E0,-1.353433132E-1,3.736888766E-1,-3.012420796E-2
3.000024998E0,-1.322889775E-1,3.565846682E-1,-3.012420796E-2
3.002026331E0,-1.359541565E-1,3.437564671E-1,-3.256766871E-2
3.004027697E0,-1.390084922E-1,3.272631168E-1,-3.073507361E-2
3.006029030E0,-1.322889775E-1,3.052719831E-1,-3.073507361E-2
3.008030363E0,-1.347324401E-1,2.985524535E-1,-3.073507361E-2
3.010031729E0,-1.371759027E-1,2.826699615E-1,-2.890247665E-2
3.012033062E0,-1.365650296E-1,2.704526484E-1,-1.973949932E-2
3.014034395E0,-1.383976340E-1,2.673983276E-1,-2.401555702E-2
3.016036628E0,-1.432845443E-1,2.570136189E-1,-2.523728833E-2
3.021252790E0,-1.414519548E-1,2.478506267E-1,-1.668517292E-2
3.023254123E0,-1.469497383E-1,2.399093807E-1,-1.729603857E-2
3.025255523E0,-1.493932009E-1,2.331898659E-1,-1.729603857E-2
3.027256856E0,-1.493932009E-1,2.246377617E-1,-1.485257689E-2
3.029258189E0,-1.518366635E-1,2.209725678E-1,-1.424171217E-2
3.031259555E0,-1.512258053E-1,2.105878443E-1,-1.363084652E-2
3.033260888E0,-1.548909843E-1,2.038683295E-1,-8.743925020E-3
3.035262121E0,-1.555018574E-1,1.940944940E-1,-6.911329459E-3
3.037263487E0,-1.536692679E-1,1.867641211E-1,-8.133059368E-3
3.039264820E0,-1.548909843E-1,1.782119870E-1,-3.857003292E-3
3.041266153E0,-1.536692679E-1,1.629403681E-1,-2.024407499E-3
3.043267519E0,-1.591670513E-1,1.549991220E-1,-5.689599086E-3
3.045268852E0,-1.579453051E-1,1.537773907E-1,4.190535401E-4
3.047270185E0,-1.658865660E-1,1.470578611E-1,6.527706049E-3
3.049271551E0,-1.664974391E-1,1.360622793E-1,1.019289810E-2
3.051272884E0,-1.658865660E-1,1.391166300E-1,1.141462848E-2
3.053274217E0,-1.652756929E-1,1.268993169E-1,5.916840397E-3
3.055275550E0,-1.628322452E-1,1.207906678E-1,1.324722357E-2
3.057276883E0,-1.671082973E-1,1.134602800E-1,1.569068432E-2
3.059278216E0,-1.671082973E-1,1.061298996E-1,2.302106842E-2
3.061279549E0,-1.695517600E-1,1.012429744E-1,1.874501072E-2
3.063280882E0,-1.701626331E-1,9.146913141E-2,1.813414507E-2
3.065282248E0,-1.683300287E-1,8.413875103E-2,2.241020277E-2
3.067283581E0,-1.646648347E-1,8.047355711E-2,2.363193408E-2
3.069284914E0,-1.664974391E-1,7.619749755E-2,2.546452917E-2
3.071286280E0,-1.664974391E-1,6.275846064E-2,2.607539296E-2
3.073288113E0,-1.609996557E-1,6.031500176E-2,3.157318011E-2
3.075289446E0,-1.616104990E-1,4.809769988E-2,3.096231632E-2
3.077291046E0,-1.609996557E-1,3.588039055E-2,2.729712427E-2
3.079291512E0,-1.616104990E-1,2.610654756E-2,3.462750465E-2
3.081292478E0,-1.616104990E-1,1.144578215E-2,3.401664272E-2
3.083294578E0,-1.591670513E-1,2.893668599E-3,3.707096726E-2
3.085295911E0,-1.579453051E-1,-1.543228887E-2,4.195788875E-2
3.087297244E0,-1.603887826E-1,-3.253651410E-2,3.768183663E-2
3.089298610E0,-1.616104990E-1,-3.925603628E-2,3.951442987E-2
3.091299676E0,-1.573344618E-1,-5.880372226E-2,4.134702682E-2
3.093301009E0,-1.561127156E-1,-8.140573651E-2,4.256875440E-2
3.095302342E0,-1.530583948E-1,-8.751438558E-2,4.317962006E-2
3.097303675E0,-1.561127156E-1,-1.095055416E-1,4.012529552E-2
3.099305008E0,-1.500040740E-1,-1.229445711E-1,4.562308267E-2
3.101306374E0,-1.487823278E-1,-1.357727349E-1,4.195788875E-2
3.103307707E0,-1.445062906E-1,-1.473791748E-1,4.073616117E-2
3.105309040E0,-1.438954175E-1,-1.589856297E-1,4.195788875E-2
3.107310406E0,-1.438954175E-1,-1.742572486E-1,4.073616117E-2
3.109311739E0,-1.402302235E-1,-1.925832033E-1,4.073616117E-2
3.111313072E0,-1.371759027E-1,-2.048005164E-1,3.890356421E-2
3.113314438E0,-1.359541565E-1,-2.231264710E-1,3.890356421E-2
3.115315771E0,-1.249585971E-1,-2.408415675E-1,4.012529552E-2
3.117317104E0,-1.286237836E-1,-2.432850152E-1,3.707096726E-2
3.119318470E0,-1.212934032E-1,-2.591675222E-1,3.951442987E-2
3.121319803E0,-1.157956198E-1,-2.756609023E-1,3.890356421E-2
3.123321136E0,-1.157956198E-1,-2.768825889E-1,3.584923968E-2
3.125322869E0,-1.133521572E-1,-2.903216481E-1,3.890356421E-2
3.127324202E0,-1.139630228E-1,-3.019281030E-1,3.523837402E-2
3.129325535E0,-1.090760976E-1,-3.068149984E-1,3.584923968E-2
3.131326868E0,-1.066326350E-1,-3.153671324E-1,3.401664272E-2
3.133327701E0,-1.066326350E-1,-3.269735575E-1,3.340577707E-2
3.135329067E0,-1.066326350E-1,-3.343039453E-1,3.523837402E-2
3.137330167E0,-1.005239859E-1,-3.465212286E-1,3.157318011E-2
3.139331500E0,-1.005239859E-1,-3.532407880E-1,3.340577707E-2
3.141332866E0,-9.624792635E-2,-3.611820042E-1,3.279491141E-2
3.143333466E0,-9.563706070E-2,-3.697341383E-1,2.974058501E-2
3.145334866E0,-9.013927728E-2,-3.758427799E-1,2.607539296E-2
3.147336232E0,-9.441532940E-2,-3.843948841E-1,2.363193408E-2
3.149337765E0,-9.380446374E-2,-3.898926675E-1,1.935587637E-2
3.151339365E0,-9.136100858E-2,-3.947795928E-1,1.752328128E-2
3.153343065E0,-9.075013548E-2,-4.021099806E-1,2.118847333E-2
3.155344531E0,-9.136100858E-2,-4.082186222E-1,1.752328128E-2
3.157345864E0,-9.197186679E-2,-4.082186222E-1,1.874501072E-2
3.159347230E0,-8.647408336E-2,-4.210468233E-1,1.446895394E-2
3.161348563E0,-8.341976255E-2,-4.234902561E-1,1.630154997E-2
3.163349896E0,-8.158716559E-2,-4.198250771E-1,1.385808829E-2
3.165351262E0,-8.097629249E-2,-4.302097857E-1,7.749436423E-3
3.167352595E0,-7.975456864E-2,-4.314315319E-1,8.360302076E-3
3.169353928E0,-7.181331515E-2,-4.332641363E-1,5.305975210E-3
3.171355294E0,-7.059159130E-2,-4.405945241E-1,2.251649275E-3
3.173356627E0,-6.509380043E-2,-4.442597032E-1,-8.026768919E-4
3.175357960E0,-6.326120347E-2,-4.442597032E-1,-2.635272685E-3
3.177359326E0,-6.265033782E-2,-4.497574866E-1,-3.246137872E-3
3.179360659E0,-5.959601328E-2,-4.595313072E-1,-8.133059368E-3
3.181361759E0,-5.593081936E-2,-4.638073742E-1,-6.300464272E-3
3.183363125E0,-5.165476725E-2,-4.680834413E-1,-9.354790673E-3
3.185364058E0,-4.982217029E-2,-4.693051875E-1,-1.240911707E-2
3.187365391E0,-5.043303221E-2,-4.772464037E-1,-2.035036497E-2
3.189366757E0,-4.432438314E-2,-4.888528585E-1,-2.035036497E-2
3.191368090E0,-4.737870768E-2,-4.925180376E-1,-2.462642081E-2
3.193369423E0,-4.004832357E-2,-4.937397838E-1,-2.584815212E-2
3.195370756E0,-4.127005860E-2,-4.974049628E-1,-3.195680305E-2
3.197372089E0,-3.821573034E-2,-5.120657086E-1,-3.989805281E-2
3.199373422E0,-3.393967450E-2,-5.102331042E-1,-4.173064977E-2
3.201374755E0,-3.943746164E-2,-5.108439922E-1,-4.173064977E-2
3.203376088E0,-3.516140208E-2,-5.248939395E-1,-4.845016450E-2
3.205377388E0,-3.332880884E-2,-5.267264843E-1,-4.783930257E-2
3.207378721E0,-3.516140208E-2,-5.352786183E-1,-4.906103015E-2
3.209379854E0,-3.455053642E-2,-5.438307524E-1,-5.516968668E-2
3.211387354E0,-3.332880884E-2,-5.548263192E-1,-5.333708972E-2
3.215387687E0,-3.027448058E-2,-5.694870353E-1,-5.883487687E-2
3.217389053E0,-3.088534810E-2,-5.810934901E-1,-5.883487687E-2
3.219390386E0,-2.966361679E-2,-5.872021317E-1,-5.455881730E-2
3.221391719E0,-2.599842474E-2,-5.975868702E-1,-5.822401121E-2
3.223393085E0,-2.844188549E-2,-6.043063998E-1,-5.639141425E-2
3.225394418E0,-2.783101983E-2,-6.067498326E-1,-5.700227991E-2
3.227395751E0,-2.844188549E-2,-6.128585339E-1,-5.578054860E-2
3.229396851E0,-2.966361679E-2,-6.183562875E-1,-5.516968668E-2
3.231398184E0,-2.660928853E-2,-6.244649887E-1,-5.150449276E-2
3.233399517E0,-2.783101983E-2,-6.275193095E-1,-5.272622406E-2
3.235400883E0,-2.477669530E-2,-6.354604959E-1,-5.211535469E-2
3.237402216E0,-2.538755909E-2,-6.379039884E-1,-4.295237735E-2
3.239403549E0,-2.783101983E-2,-6.372931004E-1,-4.478497431E-2
3.241405149E0,-2.783101983E-2,-6.372931004E-1,-4.356324300E-2
3.243406482E0,-2.416582778E-2,-6.476777792E-1,-3.806545585E-2
3.245407815E0,-2.783101983E-2,-6.427909136E-1,-3.562199324E-2
3.247409315E0,-2.660928853E-2,-6.434017420E-1,-3.562199324E-2
3.249410648E0,-2.111150324E-2,-6.501212716E-1,-3.073507361E-2
3.251411981E0,-2.355496399E-2,-6.513429880E-1,-2.768074721E-2
3.253413347E0,-1.866804063E-2,-6.531755924E-1,-2.951334417E-2
3.255414680E0,-1.805717684E-2,-6.568408012E-1,-2.401555702E-2
3.257416013E0,-1.072679367E-2,-6.580625176E-1,-2.462642081E-2
3.259417379E0,-1.561371610E-2,-6.598951221E-1,-1.912863366E-2
3.261418712E0,-8.283332922E-3,-6.647820473E-1,-1.912863366E-2
3.263420045E0,-7.061602082E-3,-6.672255397E-1,-1.973949932E-2
3.265421378E0,-5.229006521E-3,-6.727232933E-1,-1.973949932E-2
3.267422711E0,-3.396410728E-3,-6.672255397E-1,-2.035036497E-2
3.269424044E0,-4.007276148E-3,-6.745558977E-1,-1.851776801E-2
3.273420577E0,1.490511233E-3,-6.757776737E-1,-1.424171217E-2
3.275421910E0,8.796459297E-4,-6.916601062E-1,-1.607430913E-2
3.277423243E0,4.544837400E-3,-6.934927106E-1,-2.035036497E-2
3.279424576E0,7.599163335E-3,-6.934927106E-1,-1.363084652E-2
3.281425942E0,4.544837400E-3,-7.002122402E-1,-1.973949932E-2
3.283427275E0,7.599163335E-3,-6.996013522E-1,-1.912863366E-2
3.285428608E0,1.004262455E-2,-7.118186355E-1,-1.607430913E-2
3.287429974E0,1.187522057E-2,-7.191490531E-1,-1.668517292E-2
3.289431574E0,1.248608623E-2,-7.234250903E-1,-1.607430913E-2
3.291432907E0,6.988298614E-3,-7.258685827E-1,-2.218296006E-2
3.293434273E0,1.492954604E-2,-7.350315452E-1,-1.668517292E-2
3.295435606E0,1.431868132E-2,-7.399184704E-1,-1.912863366E-2
3.297436939E0,1.554041170E-2,-7.515249252E-1,-2.218296006E-2
3.299438305E0,2.042733319E-2,-7.545792460E-1,-2.584815212E-2
3.301439638E0,2.103819884E-2,-7.643530965E-1,-2.401555702E-2
3.303440971E0,1.798387244E-2,-7.655748129E-1,-2.340469137E-2
3.305442337E0,2.287079394E-2,-7.649639249E-1,-2.584815212E-2
3.307443537E0,2.470339090E-2,-7.753486037E-1,-2.401555702E-2
3.309444870E0,2.225993015E-2,-7.796247005E-1,-2.645901591E-2
3.311445970E0,2.164906450E-2,-7.820681930E-1,-2.829161286E-2
3.313447303E0,2.287079394E-2,-7.863442302E-1,-2.645901591E-2
3.315449369E0,2.714684978E-2,-7.839007378E-1,-2.829161286E-2
3.317450735E0,2.714684978E-2,-7.924528718E-1,-2.890247665E-2
3.319452068E0,3.325550631E-2,-7.918420434E-1,-3.012420796E-2
3.321453401E0,2.714684978E-2,-7.997832894E-1,-2.890247665E-2
3.323454767E0,3.020117804E-2,-7.979506850E-1,-3.073507361E-2
3.325456100E0,3.447723389E-2,-8.065028191E-1,-2.523728833E-2
3.327457433E0,3.753155842E-2,-8.095571399E-1,-2.829161286E-2
3.329458799E0,3.692069650E-2,-8.132222891E-1,-2.584815212E-2
3.331460132E0,3.814242408E-2,-8.187201023E-1,-2.645901591E-2
3.333461465E0,3.569896147E-2,-8.242179155E-1,-2.462642081E-2
3.335462831E0,4.180761799E-2,-8.346025944E-1,-2.523728833E-2
3.337464164E0,3.875329345E-2,-8.455981612E-1,-2.768074721E-2
3.339465497E0,3.997502103E-2,-8.455981612E-1,-2.340469137E-2
3.341466830E0,4.058588669E-2,-8.590371609E-1,-2.340469137E-2
3.343468163E0,3.875329345E-2,-8.657566905E-1,-2.462642081E-2
3.345469496E0,4.119675234E-2,-8.675892949E-1,-2.462642081E-2
3.347470596E0,4.119675234E-2,-8.761414289E-1,-1.912863366E-2
3.349471929E0,4.058588669E-2,-8.804174662E-1,-2.157209627E-2
3.351473295E0,4.119675234E-2,-8.834717870E-1,-1.790690422E-2
3.353474628E0,4.425108060E-2,-8.969108462E-1,-2.157209627E-2
3.355475961E0,4.425108060E-2,-8.999651670E-1,-1.668517292E-2
3.357477327E0,4.974886775E-2,-9.011868834E-1,-1.546344254E-2
3.359478660E0,4.425108060E-2,-9.085173011E-1,-1.790690422E-2
3.361479993E0,4.364021122E-2,-9.097390175E-1,-1.546344254E-2
3.363481359E0,5.219232664E-2,-9.121825099E-1,-1.240911707E-2
3.365482692E0,5.707925186E-2,-9.134041667E-1,-1.240911707E-2
3.367484025E0,5.952271074E-2,-9.213454723E-1,-1.485257689E-2
3.369485391E0,5.952271074E-2,-9.237889051E-1,-6.300464272E-3
3.371486991E0,6.013357639E-2,-9.207345843E-1,-6.911329459E-3
3.373488324E0,6.257703155E-2,-9.213454723E-1,-4.467868246E-3
3.375488957E0,5.891184136E-2,-9.298976064E-1,-9.354790673E-3
3.377490290E0,6.074443832E-2,-9.402822852E-1,-9.965655394E-3
3.379491623E0,5.891184136E-2,-9.457800388E-1,-8.743925020E-3
3.381492989E0,6.135530397E-2,-9.586082101E-1,-6.911329459E-3
3.383494322E0,5.891184136E-2,-9.622734189E-1,-8.133059368E-3
3.385495655E0,4.913800210E-2,-9.830428362E-1,-8.133059368E-3
3.387497255E0,5.035972968E-2,-9.964818954E-1,-1.057652105E-2
3.389498588E0,4.913800210E-2,-1.005033970E0,-1.179825142E-2
3.391499921E0,3.875329345E-2,-1.023970842E0,-1.790690422E-2
3.393501287E0,3.325550631E-2,-1.038020730E0,-1.424171217E-2
3.395502620E0,3.386636823E-2,-1.043518543E0,-1.485257689E-2
3.397506553E0,3.264463693E-2,-1.058179379E0,-1.790690422E-2
3.399507919E0,3.264463693E-2,-1.061844468E0,-1.301998179E-2
3.401509252E0,2.836858109E-2,-1.075894356E0,-1.118738670E-2
3.403510585E0,2.225993015E-2,-1.084446430E0,-2.035036497E-2
3.405511951E0,2.103819884E-2,-1.088111639E0,-2.157209627E-2
3.407513517E0,1.920560189E-2,-1.097274661E0,-1.912863366E-2
3.409514850E0,2.409252524E-2,-1.103994131E0,-1.790690422E-2
3.411516183E0,2.103819884E-2,-1.103994131E0,-2.218296006E-2
3.413517516E0,2.287079394E-2,-1.107048512E0,-1.851776801E-2
3.415518849E0,2.042733319E-2,-1.105826735E0,-1.729603857E-2
3.417520182E0,1.676214300E-2,-1.110713601E0,-1.729603857E-2
3.419521515E0,1.920560189E-2,-1.114378929E0,-1.485257689E-2
3.421522881E0,2.348166145E-2,-1.115600586E0,-1.240911707E-2
3.423524214E0,2.225993015E-2,-1.113767982E0,-1.363084652E-2
3.425525547E0,2.287079394E-2,-1.117433190E0,-1.607430913E-2
3.427527113E0,2.897944674E-2,-1.114989758E0,-9.965655394E-3
3.429528446E0,2.775771730E-2,-1.114989758E0,-1.118738670E-2
3.431530512E0,3.875329345E-2,-1.119876742E0,-1.424171217E-2
3.433531878E0,3.569896147E-2,-1.118654966E0,-1.240911707E-2
3.435533211E0,4.180761799E-2,-1.119876742E0,-9.354790673E-3
3.437534544E0,4.547280818E-2,-1.118044019E0,-8.133059368E-3
3.439535910E0,4.180761799E-2,-1.119265795E0,-8.133059368E-3
3.441537243E0,4.791627079E-2,-1.122320056E0,-8.133059368E-3
3.443538576E0,4.852713272E-2,-1.120487571E0,-9.965655394E-3
3.445539942E0,4.852713272E-2,-1.123541832E0,-7.522194646E-3
3.447541042E0,5.035972968E-2,-1.133926511E0,-6.911329459E-3
3.449542375E0,5.280319229E-2,-1.132704854E0,-5.689599086E-3
3.451543741E0,5.158146471E-2,-1.135759115E0,-2.024407499E-3
3.453545074E0,5.219232664E-2,-1.146143794E0,-2.024407499E-3
3.455546407E0,4.791627079E-2,-1.145532966E0,-2.635272685E-3
3.459549406E0,4.852713272E-2,-1.152252555E0,-5.689599086E-3
3.461550739E0,4.486194253E-2,-1.158361197E0,-2.024407499E-3
3.463552105E0,4.547280818E-2,-1.158361197E0,-4.467868246E-3
3.465553438E0,4.302934557E-2,-1.162026405E0,-6.300464272E-3
3.467554771E0,3.936415538E-2,-1.166302323E0,-3.857003292E-3
3.469556137E0,3.875329345E-2,-1.168135047E0,-6.300464272E-3
3.471557470E0,3.630983084E-2,-1.166913271E0,-6.911329459E-3
3.473558803E0,3.386636823E-2,-1.167524219E0,-1.057652105E-2
3.475560169E0,3.081204183E-2,-1.169967651E0,-6.911329459E-3
3.477561502E0,3.203377500E-2,-1.173022032E0,-8.743925020E-3
3.479562835E0,2.714684978E-2,-1.176076293E0,-9.354790673E-3
3.481564168E0,2.836858109E-2,-1.179741502E0,-8.133059368E-3
3.483565501E0,3.081204183E-2,-1.185850143E0,-7.522194646E-3
3.485566834E0,2.348166145E-2,-1.192569613E0,-7.522194646E-3
3.487567967E0,2.409252524E-2,-1.200510859E0,-9.965655394E-3
3.489569300E0,2.531425655E-2,-1.207230330E0,-1.118738670E-2
3.491569933E0,1.431868132E-2,-1.207230330E0,-1.118738670E-2
3.493571266E0,1.126435492E-2,-1.218225956E0,-1.363084652E-2
3.495572599E0,1.065349020E-2,-1.226778030E0,-8.743925020E-3
3.497573965E0,1.490511233E-3,-1.240217209E0,-1.179825142E-2
3.499575298E0,-4.007276148E-3,-1.246325850E0,-1.912863366E-2
3.501576631E0,-8.894198574E-3,-1.267095208E0,-1.240911707E-2
3.503577997E0,-1.317025442E-2,-1.283588529E0,-1.851776801E-2
3.505579330E0,-1.683544554E-2,-1.290308118E0,-1.912863366E-2
3.507580663E0,-1.500285044E-2,-1.311077476E0,-1.301998179E-2
3.509582029E0,-1.744631119E-2,-1.313520908E0,-2.035036497E-2
3.511583129E0,-2.050063759E-2,-1.317796946E0,-1.912863366E-2
3.513584462E0,-1.927890815E-2,-1.330014229E0,-2.096122876E-2
3.515585828E0,-1.805717684E-2,-1.338566422E0,-2.340469137E-2
3.517587161E0,-1.561371610E-2,-1.350172877E0,-1.973949932E-2
3.521586960E0,-1.072679367E-2,-1.369109631E0,-2.523728833E-2
3.523588293E0,-6.450736895E-3,-1.383770347E0,-2.096122876E-2
3.525589626E0,-6.450736895E-3,-1.393544316E0,-1.912863366E-2
3.527590726E0,-2.785545541E-3,-1.402707219E0,-2.035036497E-2
3.529592059E0,-2.785545541E-3,-1.414924502E0,-2.157209627E-2
3.531593392E0,5.155702587E-3,-1.426530957E0,-2.157209627E-2
3.533594758E0,8.820894174E-3,-1.436915755E0,-2.157209627E-2
3.535596091E0,8.820894174E-3,-1.446078777E0,-2.340469137E-2
3.537597424E0,1.126435492E-2,-1.458296061E0,-2.829161286E-2
3.539598790E0,1.309695095E-2,-1.465626359E0,-2.890247665E-2
3.541600123E0,2.287079394E-2,-1.474789262E0,-3.012420796E-2
3.543601456E0,2.348166145E-2,-1.479676247E0,-3.134594113E-2
3.545602822E0,2.959031239E-2,-1.486395717E0,-3.989805281E-2
3.547604155E0,4.241848364E-2,-1.492504358E0,-4.173064977E-2
3.549605488E0,4.119675234E-2,-1.494947910E0,-4.783930257E-2
3.551606921E0,5.035972968E-2,-1.499834895E0,-5.333708972E-2
3.553608254E0,5.646838248E-2,-1.502889156E0,-5.761314556E-2
3.555609587E0,6.257703155E-2,-1.505943537E0,-6.311093271E-2
3.557610920E0,6.990741938E-2,-1.510830402E0,-6.921958178E-2
3.559612253E0,8.212472498E-2,-1.514495611E0,-7.288477570E-2
3.561613619E0,8.456818759E-2,-1.514495611E0,-8.082602918E-2
3.563615119E0,9.189856797E-2,-1.505943537E0,-8.143688738E-2
3.565616452E0,9.617462009E-2,-1.505943537E0,-9.915198386E-2
3.567617818E0,9.250943363E-2,-1.501667500E0,-1.009845734E-1
3.569619884E0,1.041158736E-1,-1.496169686E0,-1.101475507E-1
3.571621450E0,1.090027913E-1,-1.496780515E0,-1.150344759E-1
3.573622816E0,1.108353883E-1,-1.491282701E0,-1.254191846E-1
3.575624149E0,1.090027913E-1,-1.491282701E0,-1.284735054E-1
3.577625482E0,1.145005822E-1,-1.488839269E0,-1.339713037E-1
3.579626848E0,1.120571196E-1,-1.480287075E0,-1.376364827E-1
3.581628181E0,1.083919331E-1,-1.476011157E0,-1.474103332E-1
3.583629514E0,1.083919331E-1,-1.474178433E0,-1.498537958E-1
3.585630880E0,1.047267392E-1,-1.467458963E0,-1.529081315E-1
3.587632480E0,1.065593362E-1,-1.465626359E0,-1.614602357E-1
3.589633813E0,1.010615453E-1,-1.456463337E0,-1.565733254E-1
3.591635479E0,9.922894835E-2,-1.441802621E0,-1.608493626E-1
3.593638979E0,9.128770232E-2,-1.433861375E0,-1.632928252E-1
3.595640312E0,8.823337406E-2,-1.424087524E0,-1.632928252E-1
3.597641678E0,8.762251586E-2,-1.412481070E0,-1.614602357E-1
3.599643011E0,8.456818759E-2,-1.403318167E0,-1.590167731E-1
3.601644344E0,7.845953107E-2,-1.381937861E0,-1.577950418E-1
3.603645710E0,7.357260585E-2,-1.373385787E0,-1.596276462E-1
3.605647043E0,7.540520281E-2,-1.367887974E0,-1.571841687E-1
3.607648376E0,6.868569553E-2,-1.355059862E0,-1.516863853E-1
3.609649742E0,6.685309857E-2,-1.336733818E0,-1.516863853E-1
3.611650975E0,6.013357639E-2,-1.326349139E0,-1.461886019E-1
3.613652308E0,5.952271074E-2,-1.317186117E0,-1.394690871E-1
3.615653674E0,5.585751683E-2,-1.300692797E0,-1.309169829E-1
3.617655007E0,5.158146471E-2,-1.293362379E0,-1.235865951E-1
3.619656340E0,4.974886775E-2,-1.287253737E0,-1.205322668E-1
3.621657673E0,5.097059533E-2,-1.287253737E0,-1.150344759E-1
3.623658839E0,4.913800210E-2,-1.273203850E0,-1.089258268E-1
3.625660172E0,4.608367383E-2,-1.261597395E0,-1.052606329E-1
3.627661505E0,4.425108060E-2,-1.254266977E0,-9.670852125E-2
3.629662105E0,4.547280818E-2,-1.245714903E0,-9.365420043E-2
3.631663471E0,4.730540514E-2,-1.240828037E0,-8.632381260E-2
3.633664804E0,4.486194253E-2,-1.235330224E0,-8.510208130E-2
3.635666137E0,4.669453949E-2,-1.221891165E0,-7.410650700E-2
3.637667503E0,5.035972968E-2,-1.219447613E0,-6.983045489E-2
3.639668836E0,4.791627079E-2,-1.212117314E0,-6.983045489E-2
3.641670169E0,4.364021122E-2,-1.207230330E0,-6.738698483E-2
3.643671535E0,4.547280818E-2,-1.201732516E0,-6.494352967E-2
3.645672868E0,4.913800210E-2,-1.194402218E0,-6.127833575E-2
3.647674201E0,5.035972968E-2,-1.180352330E0,-6.066747382E-2
3.649675567E0,5.219232664E-2,-1.170578480E0,-5.883487687E-2
3.651676600E0,5.463578925E-2,-1.168745875E0,-5.944573879E-2
3.655677132E0,5.707925186E-2,-1.156528592E0,-4.967189953E-2
3.657678465E0,5.830097944E-2,-1.147976398E0,-4.783930257E-2
3.659679798E0,6.746395677E-2,-1.135759115E0,-4.967189953E-2
3.661681164E0,6.563135982E-2,-1.133926511E0,-5.150449276E-2
3.663682497E0,6.196616963E-2,-1.115600586E0,-5.333708972E-2
3.665683830E0,6.868569553E-2,-1.112546206E0,-5.822401121E-2
3.667685196E0,6.440962851E-2,-1.103383303E0,-5.822401121E-2
3.669686529E0,7.051828504E-2,-1.094220281E0,-5.883487687E-2
3.671687862E0,6.807482243E-2,-1.083835602E0,-5.822401121E-2
3.673689228E0,6.379877031E-2,-1.082002997E0,-6.555438787E-2
3.675690561E0,6.074443832E-2,-1.071007490E0,-6.677612662E-2
3.677691894E0,6.196616963E-2,-1.062455297E0,-7.044131309E-2
3.679693260E0,6.013357639E-2,-1.053292394E0,-8.204775304E-2
3.681694593E0,6.013357639E-2,-1.030690312E0,-8.998900652E-2
3.683695926E0,5.769011378E-2,-1.028246880E0,-9.487592429E-2
3.685697292E0,6.074443832E-2,-1.012975216E0,-1.022063047E-1
3.687698825E0,6.074443832E-2,-1.005033970E0,-1.077040955E-1
3.689700158E0,5.830097944E-2,-9.909840822E-1,-1.101475507E-1
3.691701491E0,5.585751683E-2,-9.769341946E-1,-1.193105280E-1
3.693702824E0,5.097059533E-2,-9.696038365E-1,-1.217539981E-1
3.695704157E0,5.097059533E-2,-9.586082101E-1,-1.296952367E-1
3.697705490E0,5.035972968E-2,-9.482235312E-1,-1.358038932E-1
3.699706823E0,4.364021122E-2,-9.317301512E-1,-1.406908184E-1
3.701708189E0,3.997502103E-2,-9.158476591E-1,-1.431342810E-1
3.703709522E0,4.486194253E-2,-9.011868834E-1,-1.504646540E-1
3.705710855E0,4.241848364E-2,-8.883587122E-1,-1.541298479E-1
3.707712221E0,3.875329345E-2,-8.749196529E-1,-1.577950418E-1
3.709713554E0,3.264463693E-2,-8.596480489E-1,-1.559624523E-1
3.711714887E0,3.203377500E-2,-8.529285192E-1,-1.584059149E-1
3.713716253E0,2.836858109E-2,-8.401003480E-1,-1.590167731E-1
3.715717586E0,2.164906450E-2,-8.278830647E-1,-1.596276462E-1
3.717718919E0,1.309695095E-2,-8.199418187E-1,-1.687906235E-1
3.719720285E0,1.676214300E-2,-8.113896847E-1,-1.626819670E-1
3.721721618E0,1.554041170E-2,-8.052810431E-1,-1.620711088E-1
3.723722951E0,1.004262455E-2,-7.930637002E-1,-1.602385044E-1
3.725724317E0,1.126435492E-2,-7.924528718E-1,-1.584059149E-1
3.727725650E0,3.933972213E-3,-7.875660062E-1,-1.584059149E-1
3.729726983E0,6.988298614E-3,-7.735160589E-1,-1.559624523E-1
3.731728349E0,3.933972213E-3,-7.637422085E-1,-1.541298479E-1
3.733729682E0,9.431759827E-3,-7.576335669E-1,-1.498537958E-1
3.735731015E0,2.687807137E-4,-7.411401868E-1,-1.486320645E-1
3.737732381E0,1.490511233E-3,-7.258685827E-1,-1.467994750E-1
3.739733714E0,1.490511233E-3,-7.142621279E-1,-1.413016766E-1
3.741735047E0,4.544837400E-3,-7.014339566E-1,-1.419125497E-1
3.743736413E0,2.687807137E-4,-6.904383302E-1,-1.382473558E-1
3.745737746E0,-2.785545541E-3,-6.739450097E-1,-1.364147663E-1
3.747738879E0,-6.450736895E-3,-6.586734056E-1,-1.351930201E-1
3.749740245E0,-9.529497474E-4,-6.482886672E-1,-1.351930201E-1
3.751741578E0,-5.839871708E-3,-6.348496675E-1,-1.296952367E-1
3.753742911E0,-3.396410728E-3,-6.287409663E-1,-1.284735054E-1
3.755744644E0,-7.061602082E-3,-6.207997203E-1,-1.278626472E-1
3.757745977E0,-1.072679367E-2,-6.073607206E-1,-1.217539981E-1
3.759747310E0,-1.072679367E-2,-6.012520790E-1,-1.229757220E-1
3.761748643E0,-1.255938876E-2,-6.018629074E-1,-1.229757220E-1
3.763749976E0,-1.561371610E-2,-5.945325494E-1,-1.229757220E-1
3.765751309E0,-1.866804063E-2,-5.939217210E-1,-1.199214011E-1
3.767752642E0,-2.477669530E-2,-5.957542658E-1,-1.162562072E-1
3.769753975E0,-3.638313338E-2,-5.945325494E-1,-1.150344759E-1
3.771755341E0,-3.943746164E-2,-5.920890570E-1,-1.186996698E-1
3.773756674E0,-4.371351749E-2,-5.902564526E-1,-1.107584238E-1
3.775758007E0,-5.226562917E-2,-5.902564526E-1,-1.119801477E-1
3.777759373E0,-5.837428197E-2,-5.847586393E-1,-1.113692820E-1
3.779760706E0,-6.509380043E-2,-5.926999450E-1,-1.119801477E-1
3.781762039E0,-7.181331515E-2,-5.933107734E-1,-1.138127446E-1
3.783763405E0,-7.670024037E-2,-5.878130198E-1,-1.144236177E-1
3.785764738E0,-7.914370298E-2,-5.988085866E-1,-1.168670729E-1
3.787769604E0,-8.341976255E-2,-6.067498326E-1,-1.180888042E-1
3.789770970E0,-8.586321771E-2,-6.098042130E-1,-1.186996698E-1
3.791772303E0,-8.647408336E-2,-6.256866455E-1,-1.193105280E-1
3.793773636E0,-8.280888945E-2,-6.372931004E-1,-1.229757220E-1
3.795775002E0,-7.731110603E-2,-6.586734056E-1,-1.248083189E-1
3.797776335E0,-8.097629249E-2,-6.837188601E-1,-1.309169829E-1
3.799777668E0,-7.608937472E-2,-6.916601062E-1,-1.309169829E-1
3.801779768E0,-7.181331515E-2,-7.087643147E-1,-1.296952367E-1
3.803781101E0,-6.753726304E-2,-7.179273367E-1,-1.370256245E-1
3.805782434E0,-6.631553173E-2,-7.179273367E-1,-1.364147663E-1
3.807783800E0,-6.936985999E-2,-7.252576947E-1,-1.339713037E-1
3.809785133E0,-6.448293477E-2,-7.393076420E-1,-1.358038932E-1
3.811786466E0,-6.814812124E-2,-7.405293584E-1,-1.382473558E-1
3.813787832E0,-6.814812124E-2,-7.570226789E-1,-1.370256245E-1
3.815788798E0,-7.059159130E-2,-7.625204921E-1,-1.351930201E-1
3.817790131E0,-6.998071820E-2,-7.753486037E-1,-1.370256245E-1
3.819791497E0,-6.570466608E-2,-7.887876630E-1,-1.364147663E-1
3.821792863E0,-6.448293477E-2,-7.936746478E-1,-1.388582140E-1
3.823794196E0,-6.631553173E-2,-7.942854762E-1,-1.425234079E-1
3.825795562E0,-6.020687893E-2,-7.924528718E-1,-1.437451541E-1
3.827797628E0,-6.020687893E-2,-7.912311554E-1,-1.400799602E-1
3.829798961E0,-5.776341632E-2,-7.875660062E-1,-1.382473558E-1
3.831800294E0,-5.776341632E-2,-7.759595513E-1,-1.345821619E-1
3.833801394E0,-6.203947589E-2,-7.729052305E-1,-1.351930201E-1
3.835802727E0,-5.593081936E-2,-7.594661713E-1,-1.339713037E-1
3.837804060E0,-5.837428197E-2,-7.515249252E-1,-1.364147663E-1
3.839805393E0,-6.692639738E-2,-7.350315452E-1,-1.327495724E-1
3.841806759E0,-6.875899434E-2,-7.142621279E-1,-1.358038932E-1
3.843808092E0,-6.936985999E-2,-7.057099938E-1,-1.278626472E-1
3.845809425E0,-6.875899434E-2,-6.824971437E-1,-1.284735054E-1
3.849808591E0,-7.975456864E-2,-6.641712189E-1,-1.205322668E-1
3.851809924E0,-8.158716559E-2,-6.507321000E-1,-1.174779385E-1
3.853811290E0,-8.647408336E-2,-6.415691376E-1,-1.138127446E-1
3.855813390E0,-8.708494902E-2,-6.336279511E-1,-1.089258268E-1
3.857814723E0,-9.075013548E-2,-6.220214963E-1,-1.052606329E-1
3.859816089E0,-9.869138896E-2,-6.079715490E-1,-1.040389016E-1
3.861816689E0,-9.991311282E-2,-6.012520790E-1,-9.915198386E-2
3.863818022E0,-1.115195602E-1,-5.865913033E-1,-9.365420043E-2
3.865819388E0,-1.096869633E-1,-5.853695869E-1,-9.121073037E-2
3.867820721E0,-1.170173511E-1,-5.737631321E-1,-9.121073037E-2
3.869823087E0,-1.188499480E-1,-5.658218861E-1,-8.143688738E-2
3.871824453E0,-1.157956198E-1,-5.615458488E-1,-8.388034999E-2
3.873825786E0,-1.206825376E-1,-5.529937148E-1,-7.899343222E-2
3.875827119E0,-1.206825376E-1,-5.371112227E-1,-7.227391005E-2
3.877828485E0,-1.219042689E-1,-5.310025811E-1,-7.166304439E-2
3.879829818E0,-1.280129254E-1,-5.126765966E-1,-6.738698483E-2
3.881831384E0,-1.261803210E-1,-5.053462386E-1,-6.555438787E-2
3.883832750E0,-1.310672462E-1,-5.022919178E-1,-6.250006706E-2
3.885834083E0,-1.310672462E-1,-4.809115827E-1,-6.250006706E-2
3.887834683E0,-1.267911941E-1,-4.735811949E-1,-5.700227991E-2
3.889836049E0,-1.304563731E-1,-4.515900910E-1,-6.066747382E-2
3.891837382E0,-1.280129254E-1,-4.363184571E-1,-5.822401121E-2
3.893838948E0,-1.261803210E-1,-4.338749647E-1,-5.822401121E-2
3.895840314E0,-1.237368658E-1,-4.094403684E-1,-5.516968668E-2
3.897841647E0,-1.231260002E-1,-3.996665478E-1,-5.578054860E-2
3.899842980E0,-1.243477315E-1,-3.911144137E-1,-5.578054860E-2
3.901844313E0,-1.206825376E-1,-3.721775711E-1,-6.066747382E-2
3.903845646E0,-1.206825376E-1,-3.636254966E-1,-6.494352967E-2
3.905846979E0,-1.212934032E-1,-3.556842208E-1,-6.555438787E-2
3.907848312E0,-1.219042689E-1,-3.440777957E-1,-6.494352967E-2
3.909849645E0,-1.237368658E-1,-3.330822289E-1,-6.494352967E-2
3.911850978E0,-1.225151345E-1,-3.294170201E-1,-6.494352967E-2
3.913852311E0,-1.286237836E-1,-3.226975203E-1,-6.983045489E-2
3.915852877E0,-1.335107088E-1,-3.196431994E-1,-6.738698483E-2
3.917854977E0,-1.353433132E-1,-3.092584908E-1,-6.555438787E-2
3.919856310E0,-1.365650296E-1,-3.049824238E-1,-6.555438787E-2
3.921857643E0,-1.402302235E-1,-2.976520360E-1,-6.188920140E-2
3.923859009E0,-1.457280070E-1,-2.964302897E-1,-5.822401121E-2
3.925863842E0,-1.493932009E-1,-2.903216481E-1,-6.066747382E-2
3.927865175E0,-1.530583948E-1,-2.872673273E-1,-5.578054860E-2
3.929865508E0,-1.536692679E-1,-2.836021483E-1,-5.516968668E-2
3.931866608E0,-1.591670513E-1,-2.842129767E-1,-5.455881730E-2
3.933867941E0,-1.622213721E-1,-2.768825889E-1,-5.272622406E-2
3.935869307E0,-1.683300287E-1,-2.683305144E-1,-5.089362711E-2
3.937871373E0,-1.634431034E-1,-2.726065814E-1,-4.967189953E-2
3.939872706E0,-1.677191556E-1,-2.640544474E-1,-4.722843692E-2
3.941874539E0,-1.750495434E-1,-2.530588806E-1,-5.089362711E-2
3.943875872E0,-1.836016476E-1,-2.524479926E-1,-4.967189953E-2
3.945877305E0,-1.854342520E-1,-2.408415675E-1,-4.295237735E-2
3.947878671E0,-1.903211772E-1,-2.347329110E-1,-4.111978039E-2
3.949880004E0,-1.945972294E-1,-2.316785902E-1,-4.417410865E-2
3.951881170E0,-1.988732964E-1,-2.200721502E-1,-4.478497431E-2
3.953882536E0,-2.037602067E-1,-2.072439790E-1,-4.600670561E-2
3.955883869E0,-2.092579901E-1,-2.041896582E-1,-4.478497431E-2
3.957885202E0,-2.135340571E-1,-1.980809867E-1,-4.050891846E-2
3.959886568E0,-2.129231840E-1,-1.876962930E-1,-4.111978039E-2
3.961887901E0,-2.226970345E-1,-1.797550321E-1,-3.623285890E-2
3.963889234E0,-2.288056761E-1,-1.760898381E-1,-3.317853436E-2
3.965890600E0,-2.312491387E-1,-1.730355173E-1,-2.890247665E-2
3.967891933E0,-2.300274223E-1,-1.620399505E-1,-2.645901591E-2
3.969893266E0,-2.379686534E-1,-1.534878314E-1,-2.096122876E-2
3.971895466E0,-2.398012578E-1,-1.498226523E-1,-1.790690422E-2
3.973896799E0,-2.440773100E-1,-1.431031227E-1,-1.118738670E-2
3.975898132E0,-2.446881831E-1,-1.394379288E-1,-8.026768919E-4
3.977898732E0,-2.422447205E-1,-1.424922645E-1,1.640783972E-3
3.979900065E0,-2.410229892E-1,-1.296640933E-1,6.527706049E-3
3.981901398E0,-2.416338474E-1,-1.272206306E-1,1.691241376E-2
3.983902731E0,-2.379686534E-1,-1.223337129E-1,1.874501072E-2
3.987901930E0,-2.404121310E-1,-1.040077507E-1,2.729712427E-2
3.989903263E0,-2.416338474E-1,-1.003425568E-1,3.279491141E-2
3.991904829E0,-2.404121310E-1,-9.117957950E-2,3.096231632E-2
3.993906195E0,-2.349143326E-1,-8.507092297E-2,3.279491141E-2
3.995907528E0,-2.324708700E-1,-8.201660216E-2,3.707096726E-2
3.997908128E0,-2.312491387E-1,-7.774055004E-2,3.462750465E-2
3.999909494E0,-2.257513553E-1,-7.835140824E-2,3.462750465E-2
4.001914860E0,-2.153666466E-1,-7.896227390E-2,3.890356421E-2
4.003916193E0,-2.147557884E-1,-7.590795308E-2,3.279491141E-2
4.005917459E0,-2.062036693E-1,-7.529707998E-2,2.729712427E-2
4.007918792E0,-1.927646399E-1,-7.957313955E-2,2.974058501E-2
4.009920125E0,-1.915429085E-1,-7.163188607E-2,2.851885371E-2
4.011921658E0,-1.854342520E-1,-7.041016221E-2,2.668625861E-2
4.013922991E0,-1.781038642E-1,-6.307977438E-2,1.996674202E-2
4.015924324E0,-1.781038642E-1,-5.880372226E-2,1.996674202E-2
4.017925690E0,-1.732169539E-1,-5.819285661E-2,1.446895394E-2
4.019927023E0,-1.701626331E-1,-4.902987555E-2,8.360302076E-3
4.021928356E0,-1.616104990E-1,-4.414295405E-2,5.305975210E-3
4.023929722E0,-1.567235887E-1,-3.681257367E-2,5.916840397E-3
4.025931055E0,-1.506149322E-1,-2.764959261E-2,6.527706049E-3
4.027932388E0,-1.481714845E-1,-2.948218957E-2,-1.918116759E-4
4.029933754E0,-1.402302235E-1,-2.764959261E-2,-8.026768919E-4
4.031934254E0,-1.365650296E-1,-2.459526807E-2,-9.965655394E-3
4.033941520E0,-1.353433132E-1,-1.970834471E-2,-5.078733433E-3
4.035942920E0,-1.261803210E-1,-1.482142322E-2,-8.133059368E-3
4.037944253E0,-1.249585971E-1,-9.323636070E-3,-1.240911707E-2
4.039945586E0,-1.255694628E-1,4.115399439E-3,-6.911329459E-3
4.041947452E0,-1.170173511E-1,8.391455747E-3,-5.689599086E-3
4.043948785E0,-1.170173511E-1,1.694356836E-2,-8.133059368E-3
4.045950118E0,-1.151847541E-1,2.793914452E-2,-5.689599086E-3
4.047951451E0,-1.139630228E-1,3.404779360E-2,-5.078733433E-3
4.049952784E0,-1.121304259E-1,3.832385316E-2,-3.246137872E-3
