"Time (s)","Acceleration x (m/s^2)","Acceleration y (m/s^2)","Acceleration z (m/s^2)"
0.000000000E0,9.804554939E0,-1.185166001E0,1.450930476E0
3.973416000E-3,6.553130150E0,-5.267404318E-1,7.996878028E-1
7.958216000E-3,8.789382935E0,-1.019961119E0,1.218685865E0
1.194748300E-2,9.186832428E0,-1.122914910E0,1.302485466E0
1.593956000E-2,9.342460632E0,-1.149251938E0,1.386285067E0
1.993354400E-2,9.414288521E0,-1.156434774E0,1.460507631E0
2.392879000E-2,9.464568138E0,-1.146857619E0,1.573038578E0
2.792497700E-2,9.517242432E0,-1.130097747E0,1.675992370E0
3.192194300E-2,9.557945251E0,-1.094183564E0,1.776551962E0
3.591947700E-2,9.627379417E0,-1.065452337E0,1.886688590E0
3.991747400E-2,9.653716087E0,-1.036720991E0,1.936968327E0
4.391589700E-2,9.644139290E0,-1.017566800E0,1.953728199E0
4.791464000E-2,9.672870636E0,-1.000806928E0,1.917814136E0
5.191365600E-2,9.711178780E0,-9.984126091E-1,1.903448462E0
5.591259700E-2,9.694418907E0,-9.936240315E-1,1.867534399E0
5.791393000E-2,9.696812630E0,-9.768640995E-1,1.810071707E0
5.991503000E-2,9.696812630E0,-9.720755816E-1,1.793311834E0
6.191636300E-2,9.680052757E0,-9.816526771E-1,1.755003452E0
6.391769600E-2,9.670475960E0,-9.696813226E-1,1.726272106E0
6.591896200E-2,9.660899162E0,-9.672870040E-1,1.714300752E0
6.792029500E-2,9.660899162E0,-9.792584181E-1,1.685569525E0
6.992162800E-2,9.644139290E0,-9.720755816E-1,1.678386688E0
7.192766100E-2,9.675264359E0,-9.768640995E-1,1.666415215E0
7.392872700E-2,9.720755577E0,-9.624984860E-1,1.649655342E0
7.593009300E-2,9.718361855E0,-9.457385540E-1,1.630501151E0
7.793142600E-2,9.680052757E0,-9.553156495E-1,1.558672905E0
7.993275900E-2,9.668081284E0,-9.577099085E-1,1.503604531E0
8.193412500E-2,9.658504486E0,-9.696813226E-1,1.460507631E0
8.393545800E-2,9.653716087E0,-9.744698405E-1,1.412622094E0
8.593679100E-2,9.668081284E0,-9.792584181E-1,1.388679385E0
8.793815700E-2,9.665687561E0,-9.816526771E-1,1.331216812E0
8.993949000E-2,9.636956215E0,-1.005595446E0,1.283331275E0
9.194082300E-2,9.617801666E0,-1.022355318E0,1.276148438E0
9.394218900E-2,9.624984741E0,-1.053480864E0,1.242628574E0
9.594352200E-2,9.593858719E0,-1.087000728E0,1.209108829E0
9.794485500E-2,9.567522049E0,-1.101366401E0,1.216291547E0
9.994622100E-2,9.565128326E0,-1.137280583E0,1.247417212E0
1.019475540E-1,9.617801666E0,-1.115732074E0,1.256994247E0
1.039488870E-1,9.627379417E0,-1.108549237E0,1.300091267E0
1.059502530E-1,9.613013268E0,-1.075029373E0,1.359948039E0
1.079515860E-1,9.656110764E0,-1.075029373E0,1.388679385E0
1.099529190E-1,9.668081284E0,-1.041509509E0,1.474873304E0
1.119539850E-1,9.689630508E0,-1.053480864E0,1.532335877E0
1.139556510E-1,9.687235832E0,-1.048692346E0,1.575432777E0
1.159569840E-1,9.689630508E0,-1.063058019E0,1.637683988E0
1.179583500E-1,9.656110764E0,-1.072635174E0,1.675992370E0
1.199599500E-1,9.622590065E0,-1.096577883E0,1.692752242E0
1.219612830E-1,9.593858719E0,-1.151646137E0,1.721483588E0
1.239626490E-1,9.526819229E0,-1.185166001E0,1.755003452E0
1.259639820E-1,9.502876282E0,-1.213897347E0,1.769369125E0
1.279650150E-1,9.445414543E0,-1.235445857E0,1.826831698E0
1.299666480E-1,9.407105446E0,-1.280937076E0,1.853168726E0
1.339648810E-1,9.414288521E0,-1.256994247E0,1.913025618E0
1.359662140E-1,9.421471596E0,-1.240234375E0,1.934574008E0
1.379675470E-1,9.450202942E0,-1.206714511E0,1.929785490E0
1.399688800E-1,9.457385063E0,-1.180377483E0,1.922602654E0
1.419702130E-1,9.423865318E0,-1.175588965E0,1.936968327E0
1.439715460E-1,9.371191978E0,-1.166011810E0,1.946545362E0
1.459725790E-1,9.344854355E0,-1.149251938E0,1.898659945E0
1.479739120E-1,9.344854355E0,-1.142069101E0,1.874717116E0
1.499752450E-1,9.356825829E0,-1.120520592E0,1.805283189E0
1.519766110E-1,9.366402626E0,-1.108549237E0,1.699935079E0
1.539779440E-1,9.366402626E0,-1.101366401E0,1.640078187E0
1.559792770E-1,9.375980377E0,-1.075029373E0,1.534730196E0
1.579806430E-1,9.428654671E0,-1.058269501E0,1.419804931E0
1.599816430E-1,9.450202942E0,-1.058269501E0,1.359948039E0
1.619829760E-1,9.464568138E0,-1.036720991E0,1.254600048E0
1.639843420E-1,9.454991341E0,-1.024749637E0,1.211503029E0
1.659856750E-1,9.471751213E0,-9.984126091E-1,1.161223292E0
1.679866750E-1,9.454991341E0,-9.888355136E-1,1.108549237E0
1.699880410E-1,9.445414543E0,-9.696813226E-1,1.094183564E0
1.719896740E-1,9.435836792E0,-9.648927450E-1,1.067846537E0
1.739910070E-1,9.397528648E0,-9.553156495E-1,1.091789365E0
1.759923730E-1,9.371191978E0,-9.601042271E-1,1.101366401E0
1.779937060E-1,9.340065956E0,-9.529213905E-1,1.197137356E0
1.799950390E-1,9.356825829E0,-9.624984860E-1,1.266571403E0
1.819964050E-1,9.361614227E0,-9.744698405E-1,1.292908430E0
1.839977380E-1,9.397528648E0,-9.792584181E-1,1.357553840E0
1.859990710E-1,9.428654671E0,-9.768640995E-1,1.393467903E0
1.880007370E-1,9.457385063E0,-9.816526771E-1,1.467690468E0
1.900018030E-1,9.457385063E0,-1.010383964E0,1.527547359E0
1.920031360E-1,9.483722687E0,-1.000806928E0,1.537124395E0
1.940045020E-1,9.543579102E0,-9.768640995E-1,1.599375606E0
1.960058350E-1,9.605830193E0,-9.960182905E-1,1.678386688E0
1.980075680E-1,9.663292885E0,-9.984126091E-1,1.699935079E0
2.000089340E-1,9.771035194E0,-9.481328130E-1,1.774157643E0
2.020102670E-1,9.811738014E0,-9.026415944E-1,1.843591571E0
2.040116000E-1,9.780612946E0,-9.170072675E-1,1.862745762E0
2.060130330E-1,9.735121727E0,-9.553156495E-1,1.915419817E0
2.080143660E-1,9.744698524E0,-9.768640995E-1,1.920208454E0
2.100156990E-1,9.850046158E0,-9.768640995E-1,1.977671027E0
2.120170320E-1,9.828497887E0,-9.768640995E-1,2.004008055E0
2.140183650E-1,9.804554939E0,-1.005595446E0,2.023162127E0
2.160197310E-1,9.747093201E0,-1.027143836E0,2.023162127E0
2.180207970E-1,9.682447433E0,-1.072635174E0,2.006402254E0
2.200224630E-1,9.660899162E0,-1.089395046E0,1.999219418E0
2.220238290E-1,9.656110764E0,-1.130097747E0,1.960911036E0
2.240251620E-1,9.636956215E0,-1.168406129E0,1.908236980E0
2.260264950E-1,9.627379417E0,-1.185166001E0,1.877111435E0
2.280281950E-1,9.605830193E0,-1.211503029E0,1.771763325E0
2.300295280E-1,9.644139290E0,-1.249811411E0,1.683175206E0
2.320308610E-1,9.672870636E0,-1.240234375E0,1.647261024E0
2.340322270E-1,9.639349937E0,-1.230657220E0,1.611346960E0
2.360335930E-1,9.639349937E0,-1.223474383E0,1.582615614E0
2.380349260E-1,9.641744614E0,-1.218685865E0,1.589798450E0
2.400362920E-1,9.644139290E0,-1.216291547E0,1.596981287E0
2.420402920E-1,9.620196342E0,-1.225868702E0,1.616135478E0
2.440416250E-1,9.610619545E0,-1.240234375E0,1.644866824E0
2.460429910E-1,9.572310448E0,-1.237840056E0,1.685569525E0
2.480442570E-1,9.560338974E0,-1.233051538E0,1.707117915E0
2.500455900E-1,9.555550575E0,-1.218685865E0,1.750214934E0
2.520469560E-1,9.493299484E0,-1.235445857E0,1.762186289E0
2.540482890E-1,9.493299484E0,-1.223474383E0,1.762186289E0
2.560496220E-1,9.474145889E0,-1.206714511E0,1.750214934E0
2.580505880E-1,9.457385063E0,-1.194743156E0,1.733454943E0
2.600519210E-1,9.440625191E0,-1.149251938E0,1.695146561E0
2.620532540E-1,9.466962814E0,-1.108549237E0,1.644866824E0
2.640546200E-1,9.486116409E0,-1.096577883E0,1.613741279E0
2.660561860E-1,9.500482559E0,-1.070240855E0,1.594586968E0
2.680575190E-1,9.538790703E0,-1.029538155E0,1.537124395E0
2.700588850E-1,9.541185379E0,-9.984126091E-1,1.508393168E0
2.720602180E-1,9.569916725E0,-9.936240315E-1,1.458113313E0
2.740617840E-1,9.610619545E0,-9.529213905E-1,1.417410731E0
2.760631170E-1,9.610619545E0,-9.385557175E-1,1.324033976E0
2.780647170E-1,9.622590065E0,-9.361614585E-1,1.307274103E0
2.800660500E-1,9.663292885E0,-9.122186899E-1,1.271359921E0
2.820673830E-1,9.684841156E0,-8.906702399E-1,1.223474383E0
2.840687160E-1,9.727938652E0,-8.954587579E-1,1.192348838E0
2.860697490E-1,9.725543976E0,-8.858816624E-1,1.187560320E0
2.880710820E-1,9.725543976E0,-8.786988258E-1,1.199531674E0
2.900724150E-1,9.689630508E0,-8.954587579E-1,1.247417212E0
2.920737810E-1,9.672870636E0,-8.906702399E-1,1.280937076E0
2.940751140E-1,9.613013268E0,-9.122186899E-1,1.398256540E0
2.960764140E-1,9.536396980E0,-9.074301720E-1,1.515576005E0
2.980777800E-1,9.514847755E0,-9.385557175E-1,1.534730196E0
3.000791130E-1,9.498087883E0,-9.577099085E-1,1.544307232E0
3.040791120E-1,9.471751213E0,-9.505270720E-1,1.503604531E0
3.060804450E-1,9.414288521E0,-9.122186899E-1,1.450930476E0
3.080818450E-1,9.378374100E0,-8.930644989E-1,1.448536277E0
3.100832110E-1,9.287391663E0,-8.547561169E-1,1.443747759E0
3.120845440E-1,9.217958450E0,-8.188419938E-1,1.474873304E0
3.140858770E-1,9.184437752E0,-7.972934842E-1,1.486844659E0
3.160872430E-1,9.177255630E0,-7.398309112E-1,1.537124395E0
3.180885760E-1,9.220352173E0,-6.775797606E-1,1.532335877E0
3.200899090E-1,9.265843391E0,-6.536370516E-1,1.549095750E0
3.220912750E-1,9.368797302E0,-5.937801600E-1,1.606558442E0
3.240926080E-1,9.409500122E0,-5.482889414E-1,1.738243461E0
3.260939410E-1,9.395133972E0,-5.339232683E-1,1.819648862E0
3.280953070E-1,9.359220505E0,-5.123748183E-1,1.927391171E0
3.300963070E-1,9.325700760E0,-4.956148863E-1,1.992036581E0
3.320976400E-1,9.313729286E0,-4.932205975E-1,2.104567528E0
3.340987730E-1,9.332882881E0,-5.435003638E-1,2.262589693E0
3.361001060E-1,9.273026466E0,-6.153286099E-1,2.355966330E0
3.381014390E-1,9.239506721E0,-6.296942830E-1,2.334417820E0
3.401028050E-1,9.198803902E0,-7.063110471E-1,2.286532402E0
3.421041380E-1,9.215563774E0,-7.518022656E-1,2.229069948E0
3.441054710E-1,9.162889481E0,-8.379961848E-1,2.090201855E0
3.461071370E-1,9.122186661E0,-9.194015265E-1,1.927391171E0
3.481084700E-1,9.098244667E0,-9.433442950E-1,1.862745762E0
3.501098030E-1,9.079090118E0,-1.046298146E0,1.680780888E0
3.521111360E-1,9.098244667E0,-1.149251938E0,1.496421814E0
3.541124690E-1,9.126976013E0,-1.192348838E0,1.415016413E0
3.561138020E-1,9.186832428E0,-1.268965602E0,1.259388566E0
3.581151350E-1,9.217958450E0,-1.309668303E0,1.199531674E0
3.601179010E-1,9.280209541E0,-1.388679385E0,1.091789365E0
3.621192670E-1,9.344854355E0,-1.422199249E0,1.012778282E0
3.641206330E-1,9.380768776E0,-1.438959122E0,9.792584181E-1
3.661219660E-1,9.466962814E0,-1.446141958E0,9.553156495E-1
3.681233990E-1,9.553156853E0,-1.429382086E0,9.720755816E-1
3.701247320E-1,9.598648071E0,-1.426987767E0,9.984126091E-1
3.721260650E-1,9.632167816E0,-1.422199249E0,1.041509509E0
3.741274310E-1,9.660899162E0,-1.438959122E0,1.079817891E0
3.761287640E-1,9.656110764E0,-1.458113313E0,1.103760719E0
3.781300970E-1,9.648927689E0,-1.470084786E0,1.142069101E0
3.801311300E-1,9.653716087E0,-1.517970204E0,1.156434774E0
3.821324630E-1,9.668081284E0,-1.515576005E0,1.161223292E0
3.841337960E-1,9.653716087E0,-1.529941559E0,1.149251938E0
3.861351620E-1,9.672870636E0,-1.529941559E0,1.139674783E0
3.881364950E-1,9.699207306E0,-1.520364523E0,1.161223292E0
3.901381610E-1,9.730332375E0,-1.513181686E0,1.192348838E0
3.921395270E-1,9.751881599E0,-1.496421814E0,1.204320192E0
3.941408600E-1,9.766246796E0,-1.470084786E0,1.240234375E0
3.961421930E-1,9.773429871E0,-1.438959122E0,1.297696948E0
3.981442590E-1,9.771035194E0,-1.410227895E0,1.343188167E0
4.001455920E-1,9.797372818E0,-1.379102230E0,1.419804931E0
4.021469250E-1,9.787795067E0,-1.340793848E0,1.486844659E0
4.041482910E-1,9.780612946E0,-1.321639657E0,1.529941559E0
4.061496240E-1,9.687235832E0,-1.319245458E0,1.577827096E0
4.081516570E-1,9.682447433E0,-1.338399649E0,1.601769805E0
4.101530230E-1,9.658504486E0,-1.336005330E0,1.606558442E0
4.121543560E-1,9.610619545E0,-1.345582485E0,1.596981287E0
4.141556890E-1,9.593858719E0,-1.350371003E0,1.551490068E0
4.161570550E-1,9.560338974E0,-1.350371003E0,1.458113313E0
4.181583880E-1,9.569916725E0,-1.352765322E0,1.393467903E0
4.221603210E-1,9.462174416E0,-1.326428294E0,1.233051538E0
4.241616540E-1,9.380768776E0,-1.319245458E0,1.130097747E0
4.261629870E-1,9.335277557E0,-1.336005330E0,1.091789365E0
4.281642530E-1,9.308940887E0,-1.338399649E0,1.022355318E0
4.301655860E-1,9.349642754E0,-1.328822494E0,9.505270720E-1
4.321669520E-1,9.359220505E0,-1.266571403E0,8.451790214E-1
4.341682850E-1,9.284997940E0,-1.249811411E0,7.901107073E-1
4.361696180E-1,9.258660316E0,-1.240234375E0,7.589851022E-1
4.381709840E-1,9.222746849E0,-1.197137356E0,7.302538157E-1
4.401726500E-1,9.251478195E0,-1.199531674E0,7.709565163E-1
4.421739830E-1,9.229928970E0,-1.206714511E0,7.853221297E-1
4.441753490E-1,9.196409225E0,-1.189954638E0,8.044763207E-1
4.461766820E-1,9.244295120E0,-1.139674783E0,8.451790214E-1
4.481780150E-1,9.287391663E0,-1.103760719E0,8.906702399E-1
4.501793810E-1,9.282603264E0,-1.048692346E0,9.289786220E-1
4.521807140E-1,9.244295120E0,-9.792584181E-1,9.696813226E-1
4.541820470E-1,9.253871918E0,-9.672870040E-1,1.048692346E0
4.561834130E-1,9.239506721E0,-9.481328130E-1,1.125309110E0
4.581837130E-1,9.210775375E0,-9.840469360E-1,1.154040456E0
4.601850460E-1,9.107821465E0,-1.053480864E0,1.254600048E0
4.621864120E-1,9.074301720E0,-1.063058019E0,1.266571403E0
4.641877450E-1,9.103033066E0,-1.034326673E0,1.254600048E0
4.661890780E-1,9.138946533E0,-1.005595446E0,1.252205729E0
4.681897440E-1,9.143735886E0,-9.433442950E-1,1.268965602E0
4.701910770E-1,9.122186661E0,-9.026415944E-1,1.280937076E0
4.721924100E-1,9.035993576E0,-8.475732803E-1,1.292908430E0
4.741937760E-1,8.933039665E0,-7.853221297E-1,1.261782765E0
4.761951090E-1,8.870788574E0,-7.541965842E-1,1.264177084E0
4.781964420E-1,8.760651588E0,-7.470137477E-1,1.237840056E0
4.801978080E-1,8.715160370E0,-7.541965842E-1,1.213897347E0
4.821984410E-1,8.667274475E0,-7.757450342E-1,1.187560320E0
4.841997740E-1,8.645726204E0,-8.116591573E-1,1.180377483E0
4.862011400E-1,8.643332481E0,-8.356019258E-1,1.170800328E0
4.882024730E-1,8.638543129E0,-8.786988258E-1,1.122914910E0
4.902038060E-1,8.645726204E0,-9.074301720E-1,1.055875182E0
4.922051390E-1,8.681640625E0,-9.265843630E-1,9.888355136E-1
4.942064720E-1,8.696005821E0,-9.888355136E-1,8.451790214E-1
4.962078050E-1,8.739103317E0,-1.000806928E0,6.799740195E-1
4.982091380E-1,8.777411461E0,-1.007989645E0,6.033572555E-1
5.002104710E-1,8.844450951E0,-1.010383964E0,4.381522834E-1
5.022118370E-1,8.877970695E0,-1.003201127E0,3.878725171E-1
5.042131700E-1,8.918673515E0,-1.003201127E0,2.490045726E-1
5.062145030E-1,8.942616463E0,-9.864411950E-1,1.388679445E-1
5.082158690E-1,8.966559410E0,-9.720755816E-1,7.182824612E-2
5.102172020E-1,8.990502357E0,-9.457385540E-1,-7.182824425E-3
5.122185350E-1,9.028810501E0,-9.074301720E-1,-6.464541703E-2
5.142199010E-1,9.067118645E0,-8.810931444E-1,-9.098244458E-2
5.162212340E-1,9.076695442E0,-7.996878028E-1,-1.077423692E-1
5.182266670E-1,9.076695442E0,-7.589851022E-1,-9.098244458E-2
5.202280330E-1,9.069513321E0,-7.230709791E-1,-6.943397224E-2
5.222293660E-1,9.014444351E0,-7.087053657E-1,-9.577099234E-3
5.242306990E-1,9.004867554E0,-6.895511150E-1,6.703969836E-2
5.262320650E-1,9.000079155E0,-6.656084061E-1,1.149251908E-1
5.282333980E-1,8.978530884E0,-6.249057055E-1,1.915419847E-1
5.302347310E-1,8.954587936E0,-5.937801600E-1,2.490045726E-1
5.322360970E-1,8.858817101E0,-5.818088055E-1,3.495641351E-1
5.342374300E-1,8.782199860E0,-6.057515144E-1,4.166038036E-1
5.362387630E-1,8.705583572E0,-5.865973234E-1,4.046324492E-1
5.382401290E-1,8.523618698E0,-5.482889414E-1,4.070267081E-1
5.402414620E-1,8.363202095E0,-4.932205975E-1,5.315290093E-1
5.422427950E-1,8.279402733E0,-5.075862408E-1,6.249057055E-1
5.442438280E-1,8.202785492E0,-5.123748183E-1,7.278595567E-1
5.462451610E-1,8.164477348E0,-5.075862408E-1,7.661679387E-1
5.482464940E-1,8.126168251E0,-4.884320498E-1,7.565908432E-1
5.502478600E-1,8.107014656E0,-4.597007632E-1,8.140534163E-1
5.522491930E-1,8.104619980E0,-4.261809289E-1,8.475732803E-1
5.542505260E-1,8.107014656E0,-4.070267081E-1,9.457385540E-1
5.562515920E-1,8.102226257E0,-4.022381604E-1,1.005595446E0
5.582529250E-1,8.104619980E0,-3.950553536E-1,1.039115310E0
5.602542580E-1,8.126168251E0,-3.878725171E-1,1.034326673E0
5.622555910E-1,8.116591454E0,-3.759011328E-1,1.029538155E0
5.642569240E-1,8.107014656E0,-3.663240373E-1,1.005595446E0
5.662582570E-1,8.042368889E0,-3.950553536E-1,1.015172482E0
5.682595900E-1,7.762238979E0,-5.123748183E-1,1.063058019E0
5.702609230E-1,7.563514233E0,-6.488484740E-1,1.158828974E0
5.722622890E-1,7.728719234E0,-7.326480746E-1,1.166011810E0
5.742636220E-1,8.145322800E0,-7.015225291E-1,1.048692346E0
5.762649550E-1,8.439818382E0,-5.770202279E-1,8.715160489E-1
5.802635540E-1,8.537983894E0,-4.716721475E-1,6.847625971E-1
5.822648870E-1,8.494887352E0,-3.567469418E-1,4.956148863E-1
5.842662530E-1,8.435029984E0,-3.136500120E-1,3.256213665E-1
5.862675860E-1,8.437424660E0,-3.136500120E-1,2.442160249E-1
5.882689190E-1,8.454184532E0,-2.992843390E-1,8.858817071E-2
5.902727190E-1,8.528407097E0,-2.394274771E-1,-6.703969836E-2
5.922740520E-1,8.595446587E0,-1.843591630E-1,-1.987248063E-1
5.942753850E-1,8.674457550E0,-1.029538140E-1,-4.166038036E-1
5.962767510E-1,8.691217422E0,-8.140534163E-2,-5.267404318E-1
5.982780840E-1,8.734314919E0,-6.703969836E-2,-6.201171875E-1
6.002794170E-1,8.755863190E0,1.915419847E-2,-7.853221297E-1
6.022804830E-1,8.719948769E0,4.309694469E-2,-8.212362528E-1
6.042821490E-1,8.693612099E0,5.267404765E-2,-7.853221297E-1
6.062834820E-1,8.679245949E0,1.077423692E-1,-8.116591573E-1
6.082848480E-1,8.684034348E0,1.173194647E-1,-7.996878028E-1
6.102861810E-1,8.681640625E0,1.197137386E-1,-7.709565163E-1
6.122875140E-1,8.727131844E0,1.053480953E-1,-6.703969240E-1
6.142888800E-1,8.724737167E0,9.098244458E-2,-5.985686779E-1
6.162905130E-1,8.777411461E0,1.484450400E-1,-5.458946824E-1
6.182918460E-1,8.834874153E0,1.843591630E-1,-4.716721475E-1
6.202932120E-1,8.870788574E0,2.083019018E-1,-4.261809289E-1
6.222945450E-1,8.952193260E0,2.274561077E-1,-3.447755575E-1
6.242958780E-1,9.021627426E0,2.226675600E-1,-2.825244367E-1
6.262972440E-1,9.067118645E0,2.537931204E-1,-2.226675600E-1
6.282985770E-1,9.117398262E0,2.537931204E-1,-1.316851079E-1
6.302999100E-1,9.155706406E0,2.585816681E-1,-7.901106775E-2
6.323009430E-1,9.205986977E0,2.729473412E-1,-5.027977005E-2
6.343022760E-1,9.258660316E0,3.256213665E-1,-1.077423692E-1
6.363036090E-1,9.289786339E0,3.088614643E-1,-1.436564922E-1
6.383049750E-1,9.282603264E0,2.897072434E-1,-1.221080124E-1
6.403063080E-1,9.280209541E0,3.256213665E-1,-9.098244458E-2
6.423076740E-1,9.273026466E0,2.992843390E-1,-6.943397224E-2
6.443148400E-1,9.229928970E0,2.968900800E-1,-2.633702382E-2
6.463163730E-1,9.229928970E0,2.609759569E-1,6.703969836E-2
6.483177390E-1,9.225140572E0,2.418217510E-1,9.816526622E-2
6.523179720E-1,9.261054993E0,2.226675600E-1,1.268965602E-1
6.543193380E-1,9.258660316E0,1.604164094E-1,1.556278616E-1
6.563206710E-1,9.253871918E0,1.460507661E-1,1.221080124E-1
6.583220040E-1,9.249083519E0,1.436564922E-1,1.197137386E-1
6.603233700E-1,9.225140572E0,1.125309169E-1,6.464541703E-2
6.623250030E-1,9.182044029E0,4.309694469E-2,8.858817071E-2
6.643263360E-1,9.186832428E0,4.309694469E-2,8.858817071E-2
6.663275360E-1,9.213169098E0,6.703969836E-2,-4.309694469E-2
6.683288690E-1,9.227535248E0,9.337671846E-2,-1.771763414E-1
6.703302020E-1,9.213169098E0,8.140534163E-2,-1.867534369E-1
6.723315680E-1,9.268238068E0,1.197137386E-1,-3.232271075E-1
6.743329010E-1,9.292180061E0,1.077423692E-1,-4.070267081E-1
6.763342340E-1,9.275420189E0,1.149251908E-1,-5.051919818E-1
6.783356000E-1,9.222746849E0,7.901106775E-2,-5.411061049E-1
6.803369330E-1,9.191620827E0,4.070267081E-2,-5.123748183E-1
6.823382660E-1,8.909096718E0,-1.652049571E-1,-2.897072434E-1
6.843396320E-1,8.834874153E0,-1.747820675E-1,-2.418217510E-1
6.863415320E-1,8.911490440E0,-1.125309169E-1,-2.513988614E-1
6.883428650E-1,9.067118645E0,3.112557158E-2,-3.112557232E-1
6.903442310E-1,9.153312683E0,1.292908341E-1,-4.166038036E-1
6.923458640E-1,9.182044029E0,1.604164094E-1,-4.932205975E-1
6.943471970E-1,9.232323647E0,2.490045726E-1,-6.919454336E-1
6.963485630E-1,9.232323647E0,2.513988614E-1,-8.643332124E-1
6.983501960E-1,9.227535248E0,2.442160249E-1,-9.553156495E-1
7.003515290E-1,9.138946533E0,2.609759569E-1,-1.209108829E0
7.023528620E-1,9.079090118E0,2.705530524E-1,-1.343188167E0
7.063494950E-1,9.074301720E0,2.657645047E-1,-1.893871427E0
7.083508280E-1,9.119792938E0,3.351984620E-1,-1.951334000E0
7.103521610E-1,9.182044029E0,4.501236677E-1,-1.972882390E0
7.123535270E-1,9.296969414E0,5.578660369E-1,-2.023162127E0
7.143548600E-1,9.332882881E0,6.153286099E-1,-2.061470509E0
7.163561930E-1,9.392740250E0,6.991282701E-1,-2.169213057E0
7.183575590E-1,9.397528648E0,7.589851022E-1,-2.296109438E0
7.203593920E-1,9.407105446E0,7.589851022E-1,-2.375120640E0
7.223607250E-1,9.313729286E0,7.637736797E-1,-2.523565531E0
7.243620910E-1,9.258660316E0,7.494080067E-1,-2.588211060E0
7.263635910E-1,9.136552811E0,7.302538157E-1,-2.758204460E0
7.283649240E-1,9.045570374E0,6.775797606E-1,-2.906649590E0
7.303662900E-1,9.031204224E0,6.416656375E-1,-2.968900681E0
7.323676230E-1,9.050358772E0,6.057515144E-1,-3.107768774E0
7.343689560E-1,9.035993576E0,5.554717779E-1,-3.201145411E0
7.363757890E-1,8.992896080E0,5.219519138E-1,-3.189173937E0
7.383771220E-1,8.863605499E0,4.836435020E-1,-3.141288519E0
7.403784550E-1,8.779806137E0,4.237866402E-1,-3.035940409E0
7.423794880E-1,8.746285439E0,4.094209969E-1,-2.959323645E0
7.443808210E-1,8.655303001E0,3.663240373E-1,-2.784541607E0
7.463812540E-1,8.581081390E0,3.639297783E-1,-2.707924843E0
7.483823200E-1,8.552350044E0,3.591412306E-1,-2.521171331E0
7.503842200E-1,8.514040947E0,3.782954216E-1,-2.382303476E0
7.523855530E-1,8.468549728E0,3.615354896E-1,-2.296109438E0
7.543866190E-1,8.336864471E0,3.280156553E-1,-2.068653345E0
7.563879520E-1,8.265036583E0,3.447755575E-1,-1.939362645E0
7.583889850E-1,8.209968567E0,3.806896806E-1,-1.905842781E0
7.603903510E-1,8.097437859E0,3.735068738E-1,-1.824437380E0
7.623916840E-1,8.004060745E0,3.567469418E-1,-1.735849261E0
7.643930170E-1,7.929838181E0,3.471698463E-1,-1.704723716E0
7.663947500E-1,7.781393051E0,3.304099143E-1,-1.616135478E0
7.683960830E-1,7.661679268E0,3.088614643E-1,-1.616135478E0
7.703974160E-1,7.573091030E0,3.064671755E-1,-1.616135478E0
7.723987490E-1,7.395915031E0,2.106961906E-1,-1.628106833E0
7.744000820E-1,7.336058140E0,1.771763414E-1,-1.618529797E0
7.764014150E-1,7.206767082E0,1.173194647E-1,-1.659232497E0
7.784027480E-1,7.084659100E0,1.029538140E-1,-1.755003452E0
7.804035810E-1,7.020013809E0,1.077423692E-1,-1.812466025E0
7.824049470E-1,6.878751755E0,1.149251908E-1,-1.977671027E0
7.844062800E-1,6.718335152E0,1.077423692E-1,-2.083019018E0
7.864076130E-1,6.682421207E0,8.858817071E-2,-2.157241583E0
7.884086460E-1,6.579467297E0,5.027977005E-2,-2.248224020E0
7.904099790E-1,6.510033131E0,5.267404765E-2,-2.372726440E0
7.924113120E-1,6.486090660E0,5.267404765E-2,-2.439765930E0
7.944126780E-1,6.423839092E0,8.858817071E-2,-2.672010660E0
7.984098770E-1,6.227508545E0,1.221080124E-1,-2.959323645E0
8.004112430E-1,6.103006363E0,6.943397224E-2,-2.961717844E0
8.024129090E-1,6.023995399E0,7.182824612E-2,-2.973689318E0
8.044142420E-1,5.748653889E0,1.173194647E-1,-3.079037428E0
8.064159420E-1,5.597814560E0,1.316851079E-1,-3.210722446E0
8.084175750E-1,5.554717541E0,1.364736706E-1,-3.280156374E0
8.104183410E-1,5.475706577E0,1.580221355E-1,-3.459727049E0
8.124197070E-1,5.399089813E0,1.388679445E-1,-3.624932051E0
8.144213400E-1,5.363175392E0,1.340793967E-1,-3.622537851E0
8.164226730E-1,5.291347504E0,9.337671846E-2,-3.598595142E0
8.184241730E-1,5.190787792E0,8.140534163E-2,-3.591412306E0
8.204255060E-1,5.140508175E0,9.337671846E-2,-3.569863796E0
8.224275390E-1,5.133325100E0,9.816526622E-2,-3.519583941E0
8.244292390E-1,5.154873848E0,6.943397224E-2,-3.471698523E0
8.264302050E-1,5.140508175E0,6.464541703E-2,-3.371139050E0
8.284315380E-1,5.059102535E0,5.985686928E-2,-3.220299721E0
8.304329040E-1,5.080651283E0,6.943397224E-2,-3.153259993E0
8.324342370E-1,5.114171028E0,8.858817071E-2,-2.988054991E0
8.344355700E-1,5.071074009E0,1.029538140E-1,-2.798907280E0
8.364369360E-1,5.023188591E0,1.125309169E-1,-2.703136206E0
8.384382690E-1,5.011217117E0,1.245022863E-1,-2.518777132E0
8.404396020E-1,4.982485771E0,1.316851079E-1,-2.370332003E0
8.424409350E-1,4.965725899E0,1.268965602E-1,-2.322446585E0
8.444422680E-1,4.948966026E0,1.412622184E-1,-2.269772530E0
8.464436010E-1,4.946571827E0,1.819648892E-1,-2.250618219E0
8.484452670E-1,4.920234680E0,2.130904645E-1,-2.269772530E0
8.504466000E-1,4.848406315E0,2.537931204E-1,-2.334417820E0
8.524479660E-1,4.802915096E0,2.801301479E-1,-2.363149166E0
8.544492990E-1,4.719115734E0,2.825244367E-1,-2.461314440E0
8.564506320E-1,4.642498970E0,2.777358890E-1,-2.549902678E0
8.584519980E-1,4.573064804E0,2.585816681E-1,-2.583422422E0
8.604533310E-1,4.462928295E0,2.442160249E-1,-2.640885115E0
8.624546640E-1,4.268991947E0,2.178790122E-1,-2.655250788E0
8.644560300E-1,4.206740856E0,2.154847383E-1,-2.681587696E0
8.664573630E-1,4.142095566E0,1.484450400E-1,-2.648067951E0
8.684586960E-1,4.163643837E0,7.182824612E-2,-2.607365370E0
8.704597290E-1,4.127729893E0,4.070267081E-2,-2.569056988E0
8.724610620E-1,4.003227711E0,-2.873129770E-2,-2.535537004E0
8.744623950E-1,3.933793545E0,-5.027977005E-2,-2.537931204E0
8.764637610E-1,3.838022470E0,-1.077423692E-1,-2.533142805E0
8.784653940E-1,3.794925690E0,-1.197137386E-1,-2.537931204E0
8.804667270E-1,3.742251635E0,-1.292908341E-1,-2.540325642E0
8.824673930E-1,3.730280161E0,-1.245022863E-1,-2.564268351E0
8.844683930E-1,3.735068798E0,-9.816526622E-2,-2.624125242E0
8.864697260E-1,3.742251635E0,-1.268965602E-1,-2.664827824E0
8.884710920E-1,3.739857197E0,-1.364736706E-1,-2.753416061E0
8.904724250E-1,3.725491524E0,-1.436564922E-1,-2.913832426E0
8.924737580E-1,3.735068798E0,-1.364736706E-1,-3.019180536E0
8.944751240E-1,3.768588543E0,-1.268965602E-1,-3.241847992E0
8.964764570E-1,3.763799906E0,-1.867534369E-1,-3.356773376E0
8.984777900E-1,3.670423269E0,-2.083019018E-1,-3.500429869E0
9.004791560E-1,3.560286522E0,-2.729473412E-1,-3.639297724E0
9.024804890E-1,3.545921087E0,-3.112557232E-1,-3.715914488E0
9.044818220E-1,3.512401104E0,-3.591412306E-1,-3.799714088E0
9.064831880E-1,3.514795303E0,-3.471698463E-1,-3.866753817E0
9.084845210E-1,3.524372578E0,-3.399870098E-1,-3.830839634E0
9.104858540E-1,3.569863796E0,-3.160442710E-1,-3.775771379E0
9.124871870E-1,3.574652195E0,-2.992843390E-1,-3.658451796E0
9.144885200E-1,3.579440832E0,-3.088614643E-1,-3.572257996E0
9.164899200E-1,3.603383541E0,-3.256213665E-1,-3.428601503E0
9.184912530E-1,3.682394743E0,-3.088614643E-1,-3.332830429E0
9.204925860E-1,3.708731651E0,-3.112557232E-1,-3.284945011E0
9.224939520E-1,3.715914488E0,-2.801301479E-1,-3.323253393E0
9.244952850E-1,3.708731651E0,-2.418217510E-1,-3.397475958E0
9.264966180E-1,3.711125851E0,-1.843591630E-1,-3.572257996E0
9.284979840E-1,3.713520288E0,-1.747820675E-1,-3.799714088E0
9.304996500E-1,3.737462997E0,-1.963305324E-1,-3.900273561E0
9.325009830E-1,3.725491524E0,-2.298503816E-1,-4.134912491E0
9.345023490E-1,3.560286522E0,-2.849186957E-1,-4.381523132E0
9.365036820E-1,3.344801903E0,-4.213923812E-1,-4.597007751E0
9.385048820E-1,3.241847992E0,-5.291347504E-1,-4.735875607E0
9.405062480E-1,3.210722446E0,-7.637736797E-1,-4.925023079E0
9.425075810E-1,3.294522047E0,-9.098244309E-1,-4.953754425E0
9.445089140E-1,3.562680960E0,-1.137280583E0,-4.917840481E0
9.465099470E-1,3.720703125E0,-1.201925993E0,-4.853195190E0
9.485112800E-1,4.070267200E0,-1.228263021E0,-4.680807114E0
9.505132460E-1,4.324060440E0,-1.077423692E0,-4.525179386E0
9.525146120E-1,4.427014351E0,-9.840469360E-1,-4.479688168E0
9.545159450E-1,4.577853203E0,-8.044763207E-1,-4.448562622E0
9.565172780E-1,4.716721535E0,-7.158881426E-1,-4.443774223E0
9.585186440E-1,4.788549423E0,-7.182824612E-1,-4.441379547E0
9.605199770E-1,4.977697372E0,-7.039167881E-1,-4.486870766E0
9.625213100E-1,5.241067410E0,-7.230709791E-1,-4.517996788E0
9.645232760E-1,5.346415520E0,-7.398309112E-1,-4.494053841E0
9.665246090E-1,5.490072250E0,-7.685621977E-1,-4.446168423E0
9.685259420E-1,5.468523502E0,-8.882759809E-1,-4.417437077E0
9.705273080E-1,5.475706577E0,-8.786988258E-1,-4.594613552E0
9.725286410E-1,5.497254848E0,-8.092648983E-1,-4.611373425E0
9.745299740E-1,5.506832123E0,-7.757450342E-1,-4.577853203E0
9.765312740E-1,5.602602959E0,-6.560313106E-1,-4.529967785E0
9.785324740E-1,5.667248249E0,-5.123748183E-1,-4.517996788E0
9.805338070E-1,5.700768471E0,-4.333637357E-1,-4.517996788E0
9.825351400E-1,5.679219723E0,-2.729473412E-1,-4.589824677E0
9.845371730E-1,5.576265812E0,-1.245022863E-1,-4.697566986E0
9.865385060E-1,5.540351868E0,-6.943397224E-2,-4.793338299E0
9.885398390E-1,5.528380394E0,-3.112557158E-2,-5.018400192E0
9.905411720E-1,5.801327705E0,-5.506832153E-2,-5.265010357E0
9.925425050E-1,6.000052452E0,-6.943397224E-2,-5.360781193E0
9.945438380E-1,6.246663094E0,2.873129770E-2,-5.518803596E0
9.965451710E-1,6.306519985E0,1.628106833E-1,-5.676825523E0
9.985465370E-1,6.356799603E0,2.083019018E-1,-5.719922543E0
1.000547870E0,6.363982677E0,4.094209969E-1,-5.770202160E0
1.002549203E0,6.308914185E0,5.051919818E-1,-5.789356709E0
1.004550569E0,6.193988800E0,6.727912426E-1,-5.885127544E0
1.006552235E0,6.124555111E0,7.637736797E-1,-5.947378635E0
1.008553568E0,6.155680656E0,7.853221297E-1,-5.997658253E0
1.010555401E0,6.356799603E0,7.781392932E-1,-6.009629726E0
1.012556734E0,6.586649895E0,8.068706393E-1,-5.978504181E0
1.014558067E0,6.699181080E0,7.948992252E-1,-5.937801361E0
1.016559433E0,6.850020409E0,8.068706393E-1,-5.832453251E0
1.018560766E0,6.924242973E0,8.260248303E-1,-5.784567833E0
1.020562099E0,6.998465061E0,8.427847624E-1,-5.578660488E0
1.022563465E0,7.146910191E0,8.116591573E-1,-5.317684174E0
1.024564198E0,7.216344357E0,8.116591573E-1,-5.162056446E0
1.026565531E0,7.376760483E0,8.236305118E-1,-4.860377789E0
1.028566897E0,7.479714394E0,8.308133483E-1,-4.513207912E0
1.030568230E0,7.529994488E0,8.044763207E-1,-4.355185986E0
1.032569563E0,7.558725357E0,7.757450342E-1,-4.132518291E0
1.034570929E0,7.702382088E0,6.919454336E-1,-3.967313290E0
1.036572262E0,7.774210453E0,6.608198285E-1,-3.852388144E0
1.038573728E0,8.001666069E0,6.273000240E-1,-3.675211906E0
1.040575228E0,8.174054146E0,6.919454336E-1,-3.567469358E0
1.042576561E0,8.214756966E0,7.446194887E-1,-3.531555414E0
1.044577194E0,8.150111198E0,8.547561169E-1,-3.600989342E0
1.046578560E0,8.059128761E0,8.954587579E-1,-3.730280161E0
1.048579893E0,7.970541000E0,9.074301720E-1,-3.943370581E0
1.050581226E0,8.078283310E0,8.834874034E-1,-4.122941017E0
1.052582592E0,8.186025620E0,8.691217303E-1,-4.170826912E0
1.054583925E0,8.336864471E0,9.146129489E-1,-4.369551659E0
1.056585258E0,8.284191132E0,1.048692346E0,-4.673624516E0
1.058586591E0,8.154899597E0,1.091789365E0,-4.917840481E0
1.060587924E0,7.934626579E0,1.091789365E0,-5.518803596E0
1.062589257E0,7.831672668E0,1.003201127E0,-6.170046329E0
1.064590590E0,7.805335999E0,9.241901040E-1,-6.553130150E0
1.066591923E0,7.927443981E0,7.302538157E-1,-7.324086666E0
1.068593289E0,8.037580490E0,5.267404318E-1,-7.620976925E0
1.070593522E0,8.257853508E0,4.597007632E-1,-8.135746002E0
1.072594855E0,8.370385170E0,3.974496126E-1,-8.691217422E0
1.074596088E0,8.413481712E0,3.854782581E-1,-8.956981659E0
1.076597421E0,8.336864471E0,3.782954216E-1,-9.462174416E0
1.078598754E0,8.310527802E0,3.615354896E-1,-9.876383781E0
1.080600120E0,8.387145042E0,3.232271075E-1,-9.984126091E0
1.082601453E0,8.770228386E0,2.226675600E-1,-9.984126091E0
1.084602786E0,9.251478195E0,1.508393139E-1,-9.759063721E0
1.086604152E0,9.483722687E0,1.747820675E-1,-9.584281921E0
1.088605485E0,9.845257759E0,2.490045726E-1,-9.177255630E0
1.090606818E0,1.009665680E1,3.423812985E-1,-8.964164734E0
1.092608184E0,1.018045616E1,3.998439014E-1,-8.590658188E0
1.094609517E0,1.027383327E1,4.668835998E-1,-8.351230621E0
1.096610850E0,1.040551853E1,4.501236677E-1,-8.260248184E0
1.098614883E0,1.070480251E1,4.166038036E-1,-7.965752125E0
1.100615749E0,1.095859623E1,3.328042030E-1,-7.649707794E0
1.102617082E0,1.106394386E1,2.944957912E-1,-7.489291668E0
1.104618448E0,1.115013790E1,2.418217510E-1,-7.058321953E0
1.106622881E0,1.127464008E1,2.130904645E-1,-6.634535313E0
1.108624214E0,1.126985168E1,1.891477108E-1,-6.459753513E0
1.110625580E0,1.118365765E1,1.628106833E-1,-6.222720146E0
1.112626913E0,1.110464668E1,1.484450400E-1,-6.117372036E0
1.114628246E0,1.105197239E1,1.460507661E-1,-6.098217964E0
1.116629946E0,1.096577835E1,1.484450400E-1,-6.117372036E0
1.118631279E0,1.093465328E1,1.795706153E-1,-6.182017326E0
1.120632612E0,1.096577835E1,2.154847383E-1,-6.263422966E0
1.122635045E0,1.096338463E1,2.753416002E-1,-6.292154312E0
1.124636378E0,1.089634418E1,3.399870098E-1,-6.342433929E0
1.126637711E0,1.071677399E1,4.405465722E-1,-6.452570438E0
1.128639044E0,1.053241444E1,4.501236677E-1,-6.445387840E0
1.130640377E0,1.049650097E1,4.860377908E-1,-6.366376877E0
1.132641710E0,1.031692982E1,5.482889414E-1,-6.280182838E0
1.134643176E0,9.998491287E0,7.015225291E-1,-6.359193802E0
1.136644176E0,9.830892563E0,7.781392932E-1,-6.517216206E0
1.138645542E0,9.447808266E0,9.122186899E-1,-6.890722752E0
1.140646875E0,9.150918007E0,1.034326673E0,-7.039167881E0
1.142648208E0,9.026415825E0,1.130097747E0,-7.192401409E0
1.144649574E0,8.806142807E0,1.225868702E0,-7.484503269E0
1.146650907E0,8.679245949E0,1.242628574E0,-7.632947922E0
1.148652240E0,8.449396133E0,1.187560320E0,-7.817307472E0
1.150653606E0,8.209968567E0,1.098972082E0,-7.965752125E0
1.152654939E0,8.066311836E0,1.075029373E0,-8.013637543E0
1.154656272E0,7.790970325E0,1.024749637E0,-8.073494911E0
1.156657638E0,7.644919395E0,9.936240315E-1,-8.152505875E0
1.160657970E0,7.671256542E0,9.146129489E-1,-8.186025620E0
1.162659336E0,7.635342598E0,8.954587579E-1,-8.128562927E0
1.164660669E0,7.616188049E0,8.834874034E-1,-8.159688950E0
1.168660268E0,7.620976925E0,7.901107073E-1,-8.284191132E0
1.170661601E0,7.654496670E0,6.967339516E-1,-8.257853508E0
1.172662934E0,7.620976925E0,6.057515144E-1,-8.253065109E0
1.174664300E0,7.628159523E0,5.075862408E-1,-8.296162605E0
1.176665300E0,7.654496670E0,2.873129845E-1,-8.430241585E0
1.178666633E0,7.862798691E0,5.027977005E-2,-8.490098000E0
1.180667999E0,7.970541000E0,-4.788549617E-2,-8.418270111E0
1.182668265E0,8.154899597E0,-2.083019018E-1,-8.269824982E0
1.184669598E0,8.269824982E0,-2.873129845E-1,-8.176448822E0
1.186670964E0,8.243488312E0,-3.088614643E-1,-8.118986130E0
1.188672297E0,8.111803055E0,-3.639297783E-1,-7.984906673E0
1.190673630E0,8.047157288E0,-4.549122155E-1,-7.996877670E0
1.192674996E0,8.095043182E0,-5.147690773E-1,-8.102226257E0
1.194676396E0,8.221940041E0,-6.296942830E-1,-8.123774529E0
1.196678062E0,8.286584854E0,-6.847625971E-1,-8.109408379E0
1.198679395E0,8.324893951E0,-7.302538157E-1,-8.023215294E0
1.200680728E0,8.217150688E0,-7.494080067E-1,-7.865192890E0
1.202682061E0,8.059128761E0,-7.709565163E-1,-7.776604652E0
1.204683394E0,7.834067345E0,-8.116591573E-1,-7.534782887E0
1.206684727E0,7.702382088E0,-8.547561169E-1,-7.278595448E0
1.208686093E0,7.623371124E0,-8.691217303E-1,-7.180429935E0
1.210687426E0,7.429434776E0,-8.595446348E-1,-7.175641537E0
1.212688759E0,7.314509392E0,-8.834874034E-1,-7.204372883E0
1.214690125E0,7.235498428E0,-8.834874034E-1,-7.223526955E0
1.216691191E0,6.948185444E0,-8.427847624E-1,-7.240286827E0
1.218692524E0,6.866780281E0,-8.140534163E-1,-7.252258301E0
1.220693890E0,6.629746914E0,-7.326480746E-1,-7.314509392E0
1.222695923E0,6.253845692E0,-6.392713785E-1,-7.367183685E0
1.224697256E0,6.045543671E0,-5.961744189E-1,-7.417463303E0
1.226698622E0,5.583448887E0,-5.051919818E-1,-7.570696831E0
1.228700088E0,4.934600353E0,-3.304099143E-1,-7.680833817E0
1.230701421E0,4.683201313E0,-2.849186957E-1,-7.728719234E0
1.232702787E0,4.364762783E0,-2.035133541E-1,-7.872375488E0
1.234704120E0,4.144489765E0,-8.140534163E-2,-8.011243820E0
1.236705553E0,4.156461239E0,4.309694469E-2,-8.197997093E0
1.238706919E0,4.211529255E0,1.005595401E-1,-8.269824982E0
1.240708252E0,4.285751820E0,2.298503816E-1,-8.344047546E0
1.242709585E0,4.328848839E0,3.016786277E-1,-8.470944405E0
1.244710951E0,4.424619675E0,4.525179267E-1,-8.499675751E0
1.246712284E0,4.455745220E0,5.482889414E-1,-8.466156006E0
1.248713617E0,4.465322495E0,7.901107073E-1,-8.363202095E0
1.250714983E0,4.455745220E0,1.000806928E0,-8.205180168E0
1.252716316E0,4.450956821E0,1.067846537E0,-8.095043182E0
1.254717582E0,4.479688168E0,1.177983165E0,-7.850827217E0
1.256718948E0,4.594613552E0,1.259388566E0,-7.570696831E0
1.258720281E0,4.685595989E0,1.290514112E0,-7.472531796E0
1.260721614E0,4.786155224E0,1.417410731E0,-7.297749519E0
1.262722980E0,4.764606953E0,1.525153041E0,-7.249864101E0
1.264724313E0,4.759818554E0,1.589798450E0,-7.197190285E0
1.266725646E0,4.819674969E0,1.678386688E0,-7.221132755E0
1.268726979E0,4.889109135E0,1.699935079E0,-7.252258301E0
1.270728312E0,4.913052082E0,1.745426297E0,-7.302538395E0
1.272729645E0,4.992063046E0,1.795706153E0,-7.355212212E0
1.274730978E0,5.080651283E0,1.822043180E0,-7.376760483E0
1.276732578E0,5.265010357E0,1.881899953E0,-7.381549358E0
1.278733944E0,5.782173634E0,1.884294271E0,-7.527599812E0
1.280735277E0,6.045543671E0,1.879505754E0,-7.618582249E0
1.282736377E0,6.349617004E0,1.721483588E0,-7.740690231E0
1.284737743E0,6.713546753E0,1.635289669E0,-7.831672668E0
1.286739776E0,6.960156918E0,1.582615614E0,-7.841249943E0
1.288740976E0,7.620976925E0,1.405439258E0,-7.790970325E0
1.290742342E0,8.001666069E0,1.307274103E0,-7.769421577E0
1.292743675E0,8.633754730E0,1.201925993E0,-7.743084908E0
1.294745008E0,8.983319283E0,1.115732074E0,-7.771816254E0
1.296746674E0,9.280209541E0,8.691217303E-1,-7.731113434E0
1.298748007E0,9.522030830E0,7.230709791E-1,-7.704776287E0
1.300749340E0,9.862017632E0,3.591412306E-1,-7.652102470E0
1.302750706E0,9.986519814E0,1.843591630E-1,-7.692804813E0
1.304752039E0,1.021876526E1,-6.703969836E-2,-7.812518597E0
1.306753072E0,1.017327404E1,-2.681587934E-1,-7.889135361E0
1.308754438E0,1.006553173E1,-3.998439014E-1,-7.896318436E0
1.310755771E0,9.811738014E0,-5.985686779E-1,-7.925049782E0
1.312757104E0,9.732727051E0,-6.895511150E-1,-7.975329399E0
1.314758470E0,9.620196342E0,-6.775797606E-1,-8.080677032E0
1.316759803E0,9.148524284E0,-6.799740195E-1,-8.348835945E0
1.318761136E0,8.856422424E0,-7.326480746E-1,-8.499675751E0
1.320762502E0,8.229122162E0,-7.948992252E-1,-8.832479477E0
1.322763835E0,7.656890869E0,-7.661679387E-1,-9.148524284E0
1.324765168E0,7.422251701E0,-7.206767201E-1,-9.311334610E0
1.326766534E0,7.072687626E0,-6.991282701E-1,-9.703995705E0
1.328767867E0,6.751854897E0,-6.392713785E-1,-1.006074238E1
1.330769200E0,6.505244732E0,-4.956148863E-1,-1.020679379E1
1.332770566E0,6.203566074E0,-3.304099143E-1,-1.043664360E1
1.334771899E0,6.002447128E0,-1.987248063E-1,-1.062100315E1
1.336773232E0,5.882733345E0,-7.661679387E-2,-1.066888809E1
1.338774565E0,5.554717541E0,3.495641351E-1,-1.075029373E1
1.340775898E0,5.365570068E0,5.315290093E-1,-1.070959091E1
1.342776764E0,5.035160065E0,9.002473354E-1,-1.065212822E1
1.344778097E0,4.783761024E0,1.237840056E0,-1.056354046E1
1.346778730E0,4.652075768E0,1.462901950E0,-1.046058655E1
1.348780096E0,4.549122334E0,1.755003452E0,-1.024510193E1
1.350781096E0,4.450956821E0,1.989642382E0,-9.773429871E0
1.352782429E0,4.362368584E0,2.123721838E0,-9.553156853E0
1.354783795E0,4.194769382E0,2.288926601E0,-9.007262230E0
1.356784728E0,4.225894928E0,2.248224020E0,-8.636149406E0
1.358786061E0,4.379128456E0,2.166818619E0,-8.547560692E0
1.360787494E0,4.604190350E0,2.030344963E0,-8.384750366E0
1.362788827E0,4.723904133E0,1.848380208E0,-8.236305237E0
1.364790160E0,5.001639843E0,1.716695070E0,-8.107014656E0
1.366791826E0,5.420638084E0,1.422199249E0,-8.068706512E0
1.368793159E0,5.557111740E0,1.326428294E0,-8.080677032E0
1.370794492E0,5.844424725E0,1.003201127E0,-7.989695072E0
1.372795858E0,6.172440529E0,6.775797606E-1,-8.023215294E0
1.374797191E0,6.347222328E0,4.860377908E-1,-8.039975166E0
1.376798524E0,6.584255695E0,1.532335877E-1,-8.166871071E0
1.378799890E0,6.634535313E0,-1.915419847E-2,-8.296162605E0
1.380801223E0,6.641718388E0,-1.268965602E-1,-8.367990494E0
1.382802556E0,6.620169640E0,-2.537931204E-1,-8.468549728E0
1.384803922E0,6.565101624E0,-2.274561077E-1,-8.537983894E0
1.386805255E0,6.543552876E0,-1.197137386E-1,-8.710371971E0
1.388806588E0,6.502850533E0,2.154847234E-2,-8.837267876E0
1.390807954E0,6.466936111E0,4.788549617E-2,-8.887548447E0
1.392809287E0,6.476513386E0,1.029538140E-1,-8.952193260E0
1.394810620E0,6.301731110E0,3.016786277E-1,-8.868393898E0
1.396811986E0,6.189200401E0,4.333637357E-1,-8.767834663E0
1.398813319E0,5.923435688E0,7.494080067E-1,-8.549955368E0
1.400814652E0,5.638517380E0,1.110943556E0,-8.214756966E0
1.402816018E0,5.521197796E0,1.256994247E0,-8.059128761E0
1.404817351E0,5.317684174E0,1.496421814E0,-7.778998852E0
1.406818684E0,5.135719299E0,1.697540879E0,-7.486897469E0
1.408820017E0,5.061496735E0,1.747820616E0,-7.350423813E0
1.410821683E0,4.960937500E0,1.862745762E0,-7.103813171E0
1.412823016E0,4.939388752E0,1.922602654E0,-6.981705189E0
1.414824349E0,4.793338299E0,1.968093872E0,-6.737489223E0
1.416825682E0,4.333637238E0,2.001613855E0,-6.517216206E0
1.418827048E0,4.125335693E0,1.975276709E0,-6.347222328E0
1.420828314E0,3.684788942E0,1.812466025E0,-6.002447128E0
1.422829647E0,3.519583941E0,1.505998850E0,-5.676825523E0
1.424831713E0,3.562680960E0,1.319245458E0,-5.535563469E0
1.426833046E0,3.711125851E0,8.715160489E-1,-5.355992794E0
1.428834379E0,4.022381783E0,4.764606953E-1,-5.233884811E0
1.430839879E0,4.187586784E0,3.184385598E-1,-5.185999393E0
1.432841212E0,4.692778587E0,-1.316851079E-1,-5.142902374E0
1.434842545E0,5.092622280E0,-6.296942830E-1,-5.166844845E0
1.436843911E0,5.054314137E0,-7.996878028E-1,-5.521197796E0
1.438845244E0,5.073468208E0,-1.223474383E0,-6.706363678E0
1.440846577E0,5.085439682E0,-1.465296149E0,-7.266623974E0
1.442847943E0,5.080651283E0,-1.838803053E0,-8.193208694E0
1.444849276E0,4.980091572E0,-2.109356165E0,-8.937828064E0
1.446850609E0,4.956148624E0,-2.241041183E0,-9.325700760E0
1.448852375E0,4.927417755E0,-2.468497276E0,-1.002482891E1
1.450854408E0,4.802915096E0,-2.588211060E0,-1.052044392E1
1.452855741E0,4.891503334E0,-2.734261751E0,-1.064733982E1
1.454857107E0,5.624151707E0,-3.081431627E0,-1.075268841E1
1.456858440E0,6.857203007E0,-3.239453793E0,-1.043424988E1
1.458859773E0,7.589851379E0,-3.351984739E0,-1.011341667E1
1.460861139E0,8.870788574E0,-3.363956213E0,-9.344854355E0
1.462862472E0,9.325700760E0,-3.316070557E0,-8.904308319E0
1.464863805E0,9.852440834E0,-3.129317284E0,-8.023215294E0
1.466865171E0,1.022834206E1,-2.964112282E0,-7.113390446E0
1.468866204E0,1.037678719E1,-2.861158371E0,-6.608198643E0
1.470867537E0,1.057311726E1,-2.592999697E0,-5.593026161E0
1.472868903E0,1.074790001E1,-2.384697676E0,-4.790944099E0
1.474870236E0,1.082212257E1,-2.327235222E0,-4.403071404E0
1.476871569E0,1.096338463E1,-2.221887112E0,-3.806896925E0
1.478872635E0,1.118605232E1,-2.262589693E0,-3.330436230E0
1.480873968E0,1.122436047E1,-2.253012657E0,-3.244242430E0
1.482875301E0,1.126506329E1,-2.090201855E0,-3.426207304E0
1.484875934E0,1.128900528E1,-1.956122518E0,-3.622537851E0
1.486877267E0,1.126266861E1,-1.865140080E0,-3.694365978E0
1.488878633E0,1.113816643E1,-1.661626697E0,-3.751828671E0
1.492877166E0,1.086043072E1,-1.369525194E0,-3.751828671E0
1.494878532E0,1.086761379E1,-1.266571403E0,-3.634509087E0
1.496879865E0,1.077663136E1,-1.134886265E0,-3.510006905E0
1.498881198E0,1.052762604E1,-8.499675393E-1,-3.311282158E0
1.500882564E0,1.010383987E1,-5.339232683E-1,-3.069460392E0
1.502883897E0,9.857229233E0,-3.830839694E-1,-2.976083517E0
1.504885230E0,9.495694160E0,-1.197137386E-1,-2.956929445E0
1.506886596E0,9.428654671E0,-2.154847234E-2,-3.047911882E0
1.508887529E0,9.454991341E0,9.577099234E-3,-3.126922846E0
1.510888162E0,9.390345573E0,1.101366431E-1,-3.270579338E0
1.512889528E0,9.361614227E0,1.580221355E-1,-3.328042030E0
1.514890861E0,9.138946533E0,3.304099143E-1,-3.531555414E0
1.516892194E0,8.748680115E0,5.099805593E-1,-3.861965179E0
1.518893560E0,8.511647224E0,6.057515144E-1,-4.058295727E0
1.520894893E0,8.020820618E0,8.044763207E-1,-4.520390987E0
1.522896926E0,7.477320194E0,9.816526771E-1,-4.984879971E0
1.524898292E0,7.240286827E0,1.067846537E0,-5.243461609E0
1.526899625E0,6.873962879E0,1.194743156E0,-5.746259689E0
1.528901258E0,6.727912426E0,1.163617611E0,-6.184412003E0
1.530902624E0,6.754249096E0,1.027143836E0,-6.426233768E0
1.532903957E0,6.876357079E0,6.368771195E-1,-6.979310989E0
1.534905290E0,6.909877300E0,2.130904645E-1,-7.230710030E0
1.536906656E0,6.809317589E0,-1.245022863E-1,-7.807730198E0
1.538908056E0,6.684815407E0,-2.681587934E-1,-7.913078308E0
1.540909389E0,6.519610405E0,-3.950553536E-1,-7.963357925E0
1.542910755E0,6.045543671E0,-5.578660369E-1,-7.802941799E0
1.544912088E0,5.466129303E0,-7.039167881E-1,-7.403097630E0
1.546913421E0,5.154873848E0,-7.326480746E-1,-7.110996246E0
1.548914754E0,4.436591148E0,-7.805336118E-1,-6.325674057E0
1.550916087E0,3.706337452E0,-7.781392932E-1,-5.389512539E0
1.552917420E0,3.366350412E0,-8.020820618E-1,-4.843617916E0
1.554918753E0,2.655250788E0,-7.805336118E-1,-3.553103924E0
1.556920086E0,1.850774407E0,-7.589851022E-1,-1.992036581E0
1.558921452E0,1.441353440E0,-7.853221297E-1,-1.103760719E0
1.560922785E0,8.044763207E-1,-9.529213905E-1,1.144463301E0
1.562923785E0,6.703969240E-1,-1.046298146E0,2.554691315E0
1.564925651E0,4.429408312E-1,-1.455719113E0,5.595420361E0
1.566926984E0,9.337671846E-2,-2.238646984E0,8.789382935E0
1.568928317E0,4.070267081E-2,-2.755810261E0,8.277008057E0
1.570929683E0,3.581835032E0,-5.415849686E0,5.126142502E0
1.572931016E0,1.412622166E1,-9.562733650E0,1.778706741E1
1.574932349E0,1.895068550E1,-1.089395046E1,2.237449837E1
1.576933715E0,2.483102417E1,-1.239037228E1,3.285902786E1
1.578935048E0,2.564507675E1,-1.175828362E1,4.399000931E1
1.580936381E0,2.496989250E1,-1.077902508E1,4.851758575E1
1.582937047E0,2.230027580E1,-8.231516838E0,5.376104736E1
1.584938380E0,2.065301514E1,-6.809317589E0,5.518085098E1
1.586939713E0,1.719328690E1,-3.756617069E0,5.530774689E1
1.588941079E0,1.481577206E1,-1.209108829E0,5.204674530E1
1.590942412E0,1.421002102E1,-2.873129845E-1,4.981528091E1
1.592943745E0,1.421480942E1,1.089395046E0,4.417915726E1
1.594945111E0,1.581179047E1,1.675992370E0,3.890696716E1
1.596946444E0,1.865140152E1,1.903448462E0,3.376645660E1
1.598947977E0,2.035372925E1,2.059076309E0,3.174329567E1
1.600949343E0,2.395232582E1,2.365543604E0,2.822371101E1
1.602950676E0,2.584859085E1,2.384697676E0,2.681827164E1
1.604952009E0,2.970337296E1,2.504411459E0,2.461314583E1
1.606953375E0,3.339295197E1,2.434977531E0,2.353572083E1
1.608954708E0,3.502105713E1,2.308080912E0,2.199620247E1
1.610956041E0,3.776968384E1,1.884294271E0,2.096905899E1
1.612957407E0,3.883513641E1,1.630501151E0,2.066737938E1
1.614958740E0,4.027170181E1,1.230657220E0,2.048781013E1
1.616960073E0,4.064999771E1,7.302538157E-1,2.027232552E1
1.618961406E0,4.051591873E1,4.525179267E-1,2.025795937E1
1.620962739E0,3.945525360E1,-6.703969836E-2,1.982699013E1
1.622964405E0,3.775053024E1,-5.243461728E-1,1.896744537E1
1.624965238E0,3.675451279E1,-7.254652381E-1,1.828507614E1
1.626966571E0,3.453981018E1,-1.075029373E0,1.651091957E1
1.628967937E0,3.207131195E1,-1.711906433E0,1.450930500E1
1.630969070E0,3.053897476E1,-1.980065227E0,1.336963081E1
1.632970403E0,2.721093369E1,-2.348783493E0,1.136562252E1
1.634971769E0,2.538170815E1,-2.389486313E0,1.040551853E1
1.636974502E0,2.157481003E1,-2.317657948E0,8.667274475E0
1.638975835E0,1.790438652E1,-2.253012657E0,6.967339516E0
1.640979401E0,1.621163559E1,-2.217098475E0,6.150891781E0
1.642980734E0,1.324033928E1,-2.142875910E0,4.738269806E0
1.644981767E0,1.059706020E1,-2.039922237E0,3.320859194E0
1.646983133E0,9.457385063E0,-2.023162127E0,2.774964571E0
1.648984466E0,7.513234138E0,-1.963305354E0,1.786128998E0
1.650985799E0,5.980898380E0,-1.951334000E0,1.206714511E0
1.652987865E0,5.248250484E0,-1.848380208E0,9.553156495E-1
1.654989198E0,4.034353256E0,-1.850774407E0,5.554717779E-1
1.656990531E0,2.597788095E0,-1.774157643E0,3.687183261E-1
1.658991897E0,1.903448462E0,-1.647261024E0,2.585816681E-1
1.660993230E0,5.051919818E-1,-1.496421814E0,1.675992310E-1
1.662995263E0,-2.322446555E-1,-1.359948039E0,1.843591630E-1
1.664996629E0,-1.879505754E0,-1.019961119E0,2.849186957E-1
1.666997962E0,-3.541132450E0,-6.536370516E-1,4.716721475E-1
1.668999295E0,-4.300117493E0,-5.530774593E-1,6.512427330E-1
1.671000661E0,-5.717528343E0,-3.184385598E-1,1.072635174E0
1.673001994E0,-6.967339516E0,-1.245022863E-1,1.606558442E0
1.675004027E0,-7.561120033E0,-7.661679387E-2,1.857957244E0
1.677005393E0,-8.803748131E0,5.027977005E-2,2.403851986E0
1.679006726E0,-9.943423271E0,3.016786277E-1,2.851581335E0
1.681008059E0,-1.048931789E1,4.620950520E-1,3.026363373E0
1.683009425E0,-1.148294163E1,7.996878028E-1,3.356773376E0
1.685010758E0,-1.193785381E1,9.241901040E-1,3.569863796E0
1.687012091E0,-1.283570766E1,1.091789365E0,4.120546818E0
1.689013424E0,-1.361863518E1,1.407833576E0,4.640104771E0
1.691014957E0,-1.403045082E1,1.551490068E0,4.982485771E0
1.693016290E0,-1.469366455E1,1.932179809E0,5.525986195E0
1.695017623E0,-1.488999462E1,2.231464148E0,5.906675816E0
1.699018589E0,-1.491154385E1,2.454131603E0,6.747066498E0
1.703019055E0,-1.500970840E1,2.588211060E0,8.564320564E0
1.705022088E0,-1.532096481E1,2.612153769E0,9.850046158E0
1.707023421E0,-1.545743847E1,2.525959969E0,1.045819283E1
1.709024754E0,-1.590516758E1,2.513988495E0,1.165054131E1
1.711026120E0,-1.635050201E1,2.358360767E0,1.241910362E1
1.713026753E0,-1.643909073E1,2.257801056E0,1.266331959E1
1.715028086E0,-1.686527252E1,2.083019018E0,1.381735992E1
1.717029452E0,-1.702329445E1,1.860351562E0,1.536884975E1
1.719035152E0,-1.706160164E1,1.805283189E0,1.618290329E1
1.721036485E0,-1.704723740E1,1.620923996E0,1.751651382E1
1.723037151E0,-1.677189445E1,1.422199249E0,1.847661781E1
1.725038484E0,-1.652767944E1,1.314456820E0,1.875674820E1
1.727039817E0,-1.575911713E1,1.060663700E0,1.908955383E1
1.729041183E0,-1.467690468E1,8.308133483E-1,1.924996948E1
1.731042616E0,-1.407833576E1,7.470137477E-1,1.927391243E1
1.733043949E0,-1.275190735E1,5.985686779E-1,1.914941025E1
1.735044615E0,-1.203841400E1,5.554717779E-1,1.894829178E1
1.737045948E0,-1.070959091E1,5.075862408E-1,1.825873947E1
1.739047281E0,-9.507665634E0,4.549122155E-1,1.733694458E1
1.741048647E0,-8.933039665E0,4.285751879E-1,1.684372330E1
1.743049947E0,-7.896318436E0,3.711125851E-1,1.579503059E1
1.745051280E0,-6.938608170E0,2.490045726E-1,1.475831032E1
1.747052646E0,-6.481301785E0,1.532335877E-1,1.428184891E1
1.749053979E0,-5.700768471E0,4.788549617E-3,1.332413960E1
1.751055312E0,-5.004034519E0,-1.891477108E-1,1.246938324E1
1.753056678E0,-4.683201313E0,-3.040728867E-1,1.208869362E1
1.755058011E0,-4.019987583E0,-5.650488734E-1,1.139914227E1
1.757059644E0,-3.663240433E0,-7.326480746E-1,1.110943508E1
1.759061010E0,-2.906649590E0,-1.113337755E0,1.060184860E1
1.761062343E0,-2.209915638E0,-1.505998850E0,1.022355366E1
1.763067276E0,-1.910631299E0,-1.834014535E0,1.010383987E1
1.765068176E0,-1.424593568E0,-2.006402254E0,9.974549294E0
1.767069509E0,-9.840469360E-1,-2.336812258E0,9.981731415E0
1.769070509E0,-7.206767201E-1,-2.521171331E0,1.004877090E1
1.771071842E0,-2.466102988E-1,-2.834821463E0,1.029298782E1
1.773073175E0,9.816526622E-2,-3.102980137E0,1.064733982E1
1.775074541E0,2.418217510E-1,-3.189173937E0,1.086521912E1
1.777075874E0,5.099805593E-1,-3.340013266E0,1.136083412E1
1.781074206E0,1.003201127E0,-3.646480560E0,1.205277920E1
1.783075539E0,1.156434774E0,-3.739857197E0,1.256036568E1
1.785076872E0,1.180377483E0,-3.763799906E0,1.285725594E1
1.787078238E0,1.319245458E0,-3.826051235E0,1.335287094E1
1.789079571E0,1.455719113E0,-3.866753817E0,1.384609127E1
1.791080804E0,1.486844659E0,-3.871542454E0,1.409988403E1
1.793082170E0,1.496421814E0,-3.840416908E0,1.456197929E1
1.795083503E0,1.386285067E0,-3.792531252E0,1.501210308E1
1.797084836E0,1.333611012E0,-3.766194344E0,1.522998238E1
1.799085869E0,1.120520592E0,-3.735068798E0,1.559870052E1
1.801087202E0,8.427847624E-1,-3.672817469E0,1.588122463E1
1.803088568E0,6.967339516E-1,-3.634509087E0,1.599136162E1
1.805089934E0,4.668835998E-1,-3.567469358E0,1.612304688E1
1.807091267E0,3.711125851E-1,-3.538738251E0,1.614698982E1
1.809092600E0,2.059076279E-1,-3.495641232E0,1.610389328E1
1.811093966E0,3.112557158E-2,-3.464515686E0,1.596023560E1
1.813095299E0,-6.225114316E-2,-3.428601503E0,1.584770489E1
1.815096632E0,-3.064671755E-1,-3.311282158E0,1.560348892E1
1.817097998E0,-5.482889414E-1,-3.129317284E0,1.530899334E1
1.819099331E0,-6.464542150E-1,-3.040729046E0,1.514139366E1
1.821100664E0,-9.074301720E-1,-2.827638626E0,1.481816673E1
1.825098830E0,-1.458113313E0,-2.444554567E0,1.451169968E1
1.827100163E0,-1.755003452E0,-2.202732801E0,1.433212948E1
1.829101863E0,-1.862745762E0,-1.953728199E0,1.426987743E1
1.831103196E0,-2.090201855E0,-1.807677507E0,1.418128967E1
1.833104529E0,-2.351177931E0,-1.482056141E0,1.412382698E1
1.835105529E0,-2.423006058E0,-1.333611012E0,1.411903858E1
1.837106862E0,-2.406246185E0,-1.072635174E0,1.414058685E1
1.839108195E0,-2.425400496E0,-8.044763207E-1,1.424593544E1
1.841109695E0,-2.537931204E0,-6.512427330E-1,1.432494640E1
1.843111028E0,-2.645673752E0,-3.615354896E-1,1.448296833E1
1.845112394E0,-2.485257149E0,-1.771763414E-1,1.458352757E1
1.847113727E0,-2.343995094E0,-1.101366431E-1,1.464817333E1
1.849115060E0,-2.097384691E0,8.140534163E-2,1.473676109E1
1.851116426E0,-2.094990492E0,3.328042030E-1,1.482534981E1
1.853117759E0,-2.068653345E0,4.525179267E-1,1.480380154E1
1.855119092E0,-1.877111435E0,6.512427330E-1,1.463859653E1
1.857120458E0,-1.733454943E0,7.254652381E-1,1.448296833E1
1.859122124E0,-1.441353440E0,8.882759809E-1,1.408791256E1
1.861123290E0,-1.089395046E0,1.005595446E0,1.367609787E1
1.863124656E0,-9.696813226E-1,1.041509509E0,1.346540165E1
1.865125989E0,-7.350423932E-1,1.115732074E0,1.306316376E1
1.867127322E0,-5.123748183E-1,1.139674783E0,1.265613651E1
1.869128688E0,-4.261809289E-1,1.154040456E0,1.244304657E1
1.871130021E0,-5.746259540E-2,1.182771802E0,1.191630554E1
1.873131354E0,5.722316504E-1,1.161223292E0,1.122675419E1
1.875132720E0,9.361614585E-1,1.115732074E0,1.083409309E1
1.877134053E0,1.496421814E0,1.041509509E0,1.006074238E1
1.879135386E0,1.678386688E0,9.194015265E-1,9.754275322E0
1.881141152E0,1.834014535E0,8.020820618E-1,9.131764412E0
1.883142485E0,1.699935079E0,5.961744189E-1,8.621783257E0
1.885143618E0,1.575432777E0,4.788549542E-1,8.408693314E0
1.887144984E0,1.122914910E0,2.585816681E-1,8.109408379E0
1.889146317E0,5.051919818E-1,4.788549617E-2,7.922655106E0
1.891147650E0,2.035133541E-1,-4.309694469E-2,7.884346962E0
1.893149016E0,-4.620950520E-1,-2.968900800E-1,7.858009815E0
1.895150682E0,-1.089395046E0,-5.506832004E-1,7.920260906E0
1.897152015E0,-1.695146561E0,-7.972934842E-1,8.008849144E0
1.899159581E0,-1.994430900E0,-8.786988258E-1,8.023215294E0
1.901160747E0,-2.640885115E0,-1.091789365E0,8.121379852E0
1.903162080E0,-2.959323645E0,-1.166011810E0,8.162082672E0
1.905163413E0,-3.445361376E0,-1.338399649E0,8.269824982E0
1.907164746E0,-3.670423269E0,-1.417410731E0,8.308133125E0
1.909166079E0,-4.170826912E0,-1.539518714E0,8.391933441E0
1.911167412E0,-4.592218876E0,-1.613741279E0,8.461367607E0
1.913168745E0,-4.788549423E0,-1.654443860E0,8.516435623E0
1.915170111E0,-5.135719299E0,-1.709512234E0,8.612206459E0
1.917171444E0,-5.437397957E0,-1.716695070E0,8.729525566E0
1.919172777E0,-5.576265812E0,-1.709512234E0,8.803748131E0
1.921174310E0,-5.784567833E0,-1.685569525E0,8.952193260E0
1.923175643E0,-5.892310143E0,-1.618529797E0,9.119792938E0
1.925176976E0,-5.904281616E0,-1.587404251E0,9.182044029E0
1.927178342E0,-5.755836487E0,-1.505998850E0,9.318517685E0
1.929179675E0,-5.631334305E0,-1.467690468E0,9.361614227E0
1.931181008E0,-5.288952827E0,-1.340793848E0,9.435836792E0
1.933182041E0,-4.913052082E0,-1.146857619E0,9.469356537E0
1.935183374E0,-4.747847080E0,-1.029538155E0,9.474145889E0
1.937184707E0,-4.393494129E0,-7.709565163E-1,9.483722687E0
1.939186073E0,-4.053507328E0,-4.908263385E-1,9.452596664E0
1.943184339E0,-3.545921087E0,-9.098244458E-2,9.318517685E0
1.945185905E0,-3.249030828E0,1.891477108E-1,9.172467232E0
1.947187238E0,-3.110162973E0,3.088614643E-1,9.079090118E0
1.949188571E0,-2.853975534E0,5.937801600E-1,8.837267876E0
1.951189604E0,-2.739050388E0,8.284190893E-1,8.717555046E0
1.953190937E0,-2.561874151E0,9.529213905E-1,8.463761330E0
1.955192270E0,-2.358360767E0,1.166011810E0,8.267431259E0
1.957193636E0,-2.176395893E0,1.340793848E0,8.102226257E0
1.961190202E0,-1.850774407E0,1.599375606E0,7.970541000E0
1.963191268E0,-1.692752242E0,1.644866824E0,7.953781128E0
1.965192601E0,-1.371919513E0,1.738243461E0,7.917866707E0
1.967193934E0,-1.017566800E0,1.759791970E0,7.889135361E0
1.969195300E0,-8.284190893E-1,1.788523316E0,7.879558563E0
1.971196633E0,-4.453351200E-1,1.762186289E0,7.879558563E0
1.973197966E0,-1.029538140E-1,1.745426297E0,7.865192890E0
1.975199299E0,5.027977005E-2,1.721483588E0,7.860404015E0
1.977200632E0,3.878725171E-1,1.673598051E0,7.850827217E0
1.979201965E0,5.602602959E-1,1.623318315E0,7.826884270E0
1.981203298E0,8.284190893E-1,1.503604531E0,7.781393051E0
1.983204631E0,1.106154919E0,1.364736676E0,7.728719234E0
1.985205997E0,1.223474383E0,1.273754239E0,7.688016415E0
1.987207330E0,1.443747759E0,1.094183564E0,7.625765324E0
1.989208663E0,1.589798450E0,8.858816624E-1,7.570696831E0
1.991210029E0,1.659232497E0,7.589851022E-1,7.561120033E0
1.993211695E0,1.755003452E0,4.884320498E-1,7.486897469E0
1.995213028E0,1.798100352E0,1.867534369E-1,7.431828976E0
1.997214394E0,1.795706153E0,4.788549617E-2,7.431828976E0
1.999215727E0,1.822043180E0,-2.897072434E-1,7.448588848E0
2.001217060E0,1.814860344E0,-6.296942830E-1,7.462954521E0
2.003218426E0,1.735849261E0,-7.996878028E-1,7.491685867E0
2.005219759E0,1.632895470E0,-1.151646137E0,7.568302631E0
2.007221092E0,1.575432777E0,-1.314456820E0,7.606611252E0
2.009222458E0,1.417410731E0,-1.640078187E0,7.707170486E0
2.011224124E0,1.276148438E0,-1.927391171E0,7.843644142E0
2.013225457E0,1.187560320E0,-2.063864946E0,7.925049782E0
2.015226823E0,1.017566800E0,-2.305686712E0,8.099831581E0
2.017230656E0,8.499675393E-1,-2.511594296E0,8.253065109E0
2.019231989E0,7.613793612E-1,-2.612153769E0,8.348835945E0
2.021233255E0,5.937801600E-1,-2.782147408E0,8.540378571E0
2.023235655E0,4.213923812E-1,-2.935380936E0,8.710371971E0
2.025236988E0,3.543526828E-1,-3.028757572E0,8.810931206E0
2.027238354E0,2.226675600E-1,-3.148471355E0,9.062330246E0
2.029239387E0,1.221080124E-1,-3.275367975E0,9.174860954E0
2.031240720E0,8.379961550E-2,-3.316070557E0,9.443019867E0
2.033242086E0,1.675992459E-2,-3.361561775E0,9.751881599E0
2.035244352E0,-1.915419847E-2,-3.392687321E0,9.883566856E0
2.037245685E0,-9.098244458E-2,-3.411841631E0,1.020918751E1
2.039247051E0,-1.149251908E-1,-3.411841631E0,1.056114578E1
2.041248384E0,-1.460507661E-1,-3.407052994E0,1.071677399E1
2.043249717E0,-1.771763414E-1,-3.387898922E0,1.102563572E1
2.045251050E0,-1.891477108E-1,-3.361561775E0,1.127224541E1
2.047252383E0,-2.059076279E-1,-3.361561775E0,1.137280560E1
2.049253716E0,-2.729473412E-1,-3.318464994E0,1.149970150E1
2.051255049E0,-3.088614643E-1,-3.284945011E0,1.154758739E1
2.053256382E0,-3.447755575E-1,-3.289733648E0,1.158110714E1
2.055257748E0,-4.405465722E-1,-3.263396502E0,1.148533630E1
2.057259081E0,-4.860377908E-1,-3.249030828E0,1.140393066E1
2.059260414E0,-5.937801600E-1,-3.253819466E0,1.120281219E1
2.061261780E0,-6.751855016E-1,-3.237059593E0,1.097774982E1
2.063263113E0,-7.134938836E-1,-3.229876757E0,1.087719059E1
2.065264446E0,-7.925049663E-1,-3.213116884E0,1.059945488E1
2.067265812E0,-8.260248303E-1,-3.158048391E0,1.034326744E1
2.069267145E0,-8.667274714E-1,-3.143682718E0,1.019482231E1
2.071268478E0,-9.313728809E-1,-3.105374336E0,9.933846474E0
2.073269844E0,-9.936240315E-1,-3.028757572E0,9.816526413E0
2.075271177E0,-1.034326673E0,-2.976083517E0,9.601041794E0
2.079271376E0,-1.130097747E0,-2.810878515E0,9.280209541E0
2.081272709E0,-1.209108829E0,-2.672010660E0,9.103033066E0
2.083274309E0,-1.259388566E0,-2.545114040E0,8.983319283E0
2.085275675E0,-1.278542757E0,-2.456526041E0,8.940221786E0
2.087277008E0,-1.266571403E0,-2.267378330E0,8.892336845E0
2.089278641E0,-1.245022893E0,-2.102173328E0,8.899519920E0
2.091280007E0,-1.254600048E0,-1.999219418E0,8.925856590E0
2.093281340E0,-1.240234375E0,-1.769369125E0,9.026415825E0
2.095281740E0,-1.201925993E0,-1.575432777E0,9.143735886E0
2.097283106E0,-1.161223292E0,-1.462901950E0,9.222746849E0
2.099284172E0,-1.070240855E0,-1.223474383E0,9.371191978E0
2.101285505E0,-1.031932473E0,-1.098972082E0,9.457385063E0
2.103286871E0,-9.289786220E-1,-8.332076073E-1,9.636956215E0
2.105288204E0,-8.308133483E-1,-5.913859010E-1,9.790189743E0
2.107289537E0,-7.733507752E-1,-4.716721475E-1,9.888355255E0
2.109290903E0,-6.488484740E-1,-2.513988614E-1,1.006313705E1
2.111292236E0,-5.315290093E-1,-3.591412306E-2,1.023313046E1
2.113293569E0,-4.261809289E-1,5.746259540E-2,1.030735302E1
2.115295602E0,-2.250618339E-1,2.537931204E-1,1.046776962E1
2.117296935E0,-9.577099234E-2,4.405465722E-1,1.060184860E1
2.119298268E0,-3.112557158E-2,5.243461728E-1,1.070240879E1
2.121299601E0,5.985686928E-2,6.967339516E-1,1.084127617E1
2.123300934E0,8.619388938E-2,8.308133483E-1,1.091310501E1
2.125302300E0,7.422251999E-2,8.954587579E-1,1.104957867E1
2.127303633E0,4.788549617E-2,1.019961119E0,1.118844604E1
2.129304633E0,2.633702382E-2,1.067846537E0,1.123154354E1
2.131305999E0,-5.027977005E-2,1.168406129E0,1.132491970E1
2.133307332E0,-1.340793967E-1,1.228263021E0,1.138477707E1
2.135308432E0,-1.723877788E-1,1.256994247E0,1.141111374E1
2.137309798E0,-2.968900800E-1,1.297696948E0,1.147097015E1
2.139311131E0,-4.309694767E-1,1.321639657E0,1.149012470E1
2.141312464E0,-5.004034638E-1,1.326428294E0,1.150688457E1
2.143312797E0,-6.536370516E-1,1.338399649E0,1.153561592E1
2.145314130E0,-7.518022656E-1,1.364736676E0,1.155716419E1
2.147315463E0,-8.020820618E-1,1.379102230E0,1.153322220E1
2.149316829E0,-8.810931444E-1,1.374313712E0,1.151885605E1
2.151318162E0,-9.217957854E-1,1.364736676E0,1.146618176E1
2.153319495E0,-9.792584181E-1,1.338399649E0,1.136801720E1
2.155320861E0,-1.055875182E0,1.309668303E0,1.125309181E1
2.157322194E0,-1.098972082E0,1.304879785E0,1.118605232E1
2.159323794E0,-1.154040456E0,1.266571403E0,1.103760719E1
2.161325160E0,-1.218685865E0,1.228263021E0,1.091071033E1
2.163326493E0,-1.237840056E0,1.216291547E0,1.083888245E1
2.165327826E0,-1.302485466E0,1.197137356E0,1.069043732E1
2.167328892E0,-1.355159521E0,1.168406129E0,1.050607777E1
2.169330225E0,-1.383890867E0,1.142069101E0,1.041988373E1
2.171331558E0,-1.455719113E0,1.113337755E0,1.024270725E1
2.173332924E0,-1.482056141E0,1.130097747E0,1.016130257E1
2.175333957E0,-1.561067224E0,1.118126392E0,9.986519814E0
2.177335290E0,-1.640078187E0,1.089395046E0,9.785401344E0
2.179336656E0,-1.687963724E0,1.091789365E0,9.754275322E0
2.181337989E0,-1.776551962E0,1.075029373E0,9.579493523E0
2.183339322E0,-1.893871427E0,1.089395046E0,9.426259995E0
2.185340655E0,-1.970488191E0,1.120520592E0,9.332882881E0
2.187341988E0,-2.068653345E0,1.185166001E0,9.184437752E0
2.189343654E0,-2.195549965E0,1.218685865E0,9.040781975E0
2.191344987E0,-2.257801056E0,1.242628574E0,8.973741531E0
2.193346320E0,-2.396669149E0,1.316851139E0,8.856422424E0
2.195347920E0,-2.478074312E0,1.383890867E0,8.753468513E0
2.197349253E0,-2.557085514E0,1.482056141E0,8.667274475E0
2.199350586E0,-2.614548206E0,1.517970204E0,8.664880753E0
2.201351952E0,-2.650462151E0,1.568249941E0,8.624177933E0
2.203353285E0,-2.715107679E0,1.664021015E0,8.588263512E0
2.205354618E0,-2.806090117E0,1.769369125E0,8.564320564E0
2.207355984E0,-2.834821463E0,1.824437380E0,8.559532166E0
2.209358017E0,-2.923409462E0,1.960911036E0,8.566715240E0
2.211359350E0,-2.973689318E0,2.097384691E0,8.573898315E0
2.213360716E0,-3.011997700E0,2.152452946E0,8.583475113E0
2.215362049E0,-3.093403101E0,2.248224020E0,8.609811783E0
2.217364082E0,-3.172414064E0,2.370332003E0,8.650514603E0
2.219365448E0,-3.249030828E0,2.473285913E0,8.679245949E0
2.221366781E0,-3.275367975E0,2.523565531E0,8.710371971E0
2.223368114E0,-3.308887720E0,2.626519442E0,8.741497040E0
2.225369480E0,-3.328042030E0,2.669616461E0,8.770228386E0
2.227371113E0,-3.342407703E0,2.765387297E0,8.822902679E0
2.229372446E0,-3.328042030E0,2.796513081E0,8.846845627E0
2.231373812E0,-3.318464994E0,2.882706881E0,8.885153770E0
2.233375145E0,-3.316070557E0,2.954535007E0,8.930644989E0
2.235376078E0,-3.284945011E0,3.009603500E0,8.949799538E0
2.237379844E0,-3.272973776E0,3.079037428E0,8.983319283E0
2.239381177E0,-3.225088120E0,3.172414064E0,9.033598900E0
2.241382510E0,-3.208328247E0,3.208328247E0,9.059935570E0
2.243383876E0,-3.179596901E0,3.277762175E0,9.098244667E0
2.245385209E0,-3.131711483E0,3.325647593E0,9.119792938E0
2.247386542E0,-3.131711483E0,3.349590540E0,9.138946533E0
2.249387908E0,-3.098191500E0,3.411841631E0,9.146129608E0
2.251389241E0,-3.081431627E0,3.438178539E0,9.136552811E0
2.253390574E0,-3.059883118E0,3.505218267E0,9.126976013E0
2.255391907E0,-3.031152010E0,3.567469358E0,9.112609863E0
2.257393240E0,-3.021574736E0,3.591412306E0,9.088666916E0
2.259394640E0,-3.002420664E0,3.620143414E0,9.074301720E0
2.261395973E0,-2.978477955E0,3.665634632E0,9.086273193E0
2.263397306E0,-2.947352171E0,3.670423269E0,9.057541847E0
2.265398672E0,-2.906649590E0,3.711125851E0,9.064723969E0
2.267400005E0,-2.858764172E0,3.756617069E0,9.088666916E0
2.269404071E0,-2.813272953E0,3.768588543E0,9.069513321E0
2.271405437E0,-2.731867552E0,3.785348415E0,9.076695442E0
2.273406770E0,-2.664827824E0,3.799714088E0,9.074301720E0
2.275408536E0,-2.571451187E0,3.806896925E0,9.057541847E0
2.277409202E0,-2.473285913E0,3.809291124E0,9.055147171E0
2.279410535E0,-2.423006058E0,3.797319889E0,9.002472878E0
2.281411868E0,-2.341600657E0,3.799714088E0,8.952193260E0
2.283413234E0,-2.221887112E0,3.766194344E0,8.887548447E0
2.285414567E0,-2.174001455E0,3.737462997E0,8.830085754E0
2.287415900E0,-2.068653345E0,3.715914488E0,8.707977295E0
2.289417300E0,-1.951334000E0,3.646480560E0,8.578686714E0
2.291418633E0,-1.901054144E0,3.617749214E0,8.533195496E0
2.293419966E0,-1.843591571E0,3.524372578E0,8.430241585E0
2.295422032E0,-1.788523316E0,3.445361376E0,8.346442223E0
2.299422298E0,-1.738243461E0,3.304099321E0,8.250671387E0
2.301423664E0,-1.728666425E0,3.263396502E0,8.221940041E0
2.303424997E0,-1.707117915E0,3.165231228E0,8.152505875E0
2.305426330E0,-1.707117915E0,3.040729046E0,8.123774529E0
2.307427696E0,-1.709512234E0,2.983266354E0,8.126168251E0
2.309429029E0,-1.709512234E0,2.873129845E0,8.121379852E0
2.311430362E0,-1.716695070E0,2.782147408E0,8.135746002E0
2.313431728E0,-1.728666425E0,2.719896078E0,8.138139725E0
2.315433061E0,-1.755003452E0,2.633702278E0,8.178842545E0
2.317434394E0,-1.778946161E0,2.552296877E0,8.241093636E0
2.319435694E0,-1.807677507E0,2.516382933E0,8.269824982E0
2.321437027E0,-1.862745762E0,2.434977531E0,8.341653824E0
2.323439493E0,-1.879505754E0,2.384697676E0,8.387145042E0
2.325440826E0,-1.936968327E0,2.358360767E0,8.456578255E0
2.327442159E0,-1.980065227E0,2.343995094E0,8.530800819E0
2.331442492E0,-2.061470509E0,2.375120640E0,8.645726204E0
2.333443925E0,-2.126116037E0,2.423006058E0,8.705583572E0
2.335444825E0,-2.162030220E0,2.442160368E0,8.743891716E0
2.337446158E0,-2.226675510E0,2.542719841E0,8.815719604E0
2.339447491E0,-2.281744003E0,2.667222023E0,8.868393898E0
2.341448857E0,-2.308080912E0,2.731867552E0,8.913885117E0
2.343450190E0,-2.329629421E0,2.863552570E0,9.000079155E0
2.345451523E0,-2.336812258E0,3.000026226E0,9.016839027E0
2.347452556E0,-2.363149166E0,3.043123245E0,9.047964096E0
2.349453856E0,-2.382303476E0,3.141288519E0,9.083878517E0
2.351455189E0,-2.387091875E0,3.201145411E0,9.088666916E0
2.353456555E0,-2.387091875E0,3.282550812E0,9.095849991E0
2.355457188E0,-2.377514839E0,3.347196102E0,9.071907043E0
2.357458521E0,-2.391880512E0,3.356773376E0,9.045570374E0
2.359459887E0,-2.413429022E0,3.373533249E0,9.000079155E0
2.361461220E0,-2.413429022E0,3.378321648E0,8.954587936E0
2.363462553E0,-2.449343204E0,3.356773376E0,8.952193260E0
2.365463919E0,-2.478074312E0,3.325647593E0,8.959376335E0
2.367465252E0,-2.518777132E0,3.265790939E0,8.916279793E0
2.369466585E0,-2.525959969E0,3.258608103E0,8.923461914E0
2.371467951E0,-2.554691315E0,3.208328247E0,8.930644989E0
2.373469284E0,-2.528354168E0,3.201145411E0,8.940221786E0
2.375470617E0,-2.461314440E0,3.150865555E0,8.940221786E0
2.377472217E0,-2.387091875E0,3.122134447E0,8.897125244E0
2.379473550E0,-2.322446585E0,3.105374336E0,8.892336845E0
2.381474883E0,-2.241041183E0,3.055094719E0,8.868393898E0
2.383475116E0,-2.128510237E0,3.004814863E0,8.889942169E0
2.385476449E0,-2.078230619E0,2.976083517E0,8.918673515E0
2.387477782E0,-1.984853864E0,2.923409462E0,8.980924606E0
2.389479148E0,-1.869928598E0,2.913832426E0,9.081484795E0
2.391479381E0,-1.824437380E0,2.925803900E0,9.129369736E0
2.393480614E0,-1.776551962E0,2.904255390E0,9.225140572E0
2.395481980E0,-1.781340480E0,2.887495518E0,9.270631790E0
2.397483313E0,-1.723877907E0,2.892283916E0,9.337671280E0
2.399484646E0,-1.642472506E0,2.877918243E0,9.404711723E0
2.401485979E0,-1.601769805E0,2.873129845E0,9.433443069E0
2.403487312E0,-1.544307232E0,2.832427025E0,9.483722687E0
2.405488645E0,-1.494027495E0,2.822849989E0,9.490905762E0
2.407490311E0,-1.441353440E0,2.808484316E0,9.498087883E0
2.409491644E0,-1.355159521E0,2.765387297E0,9.538790703E0
2.411493010E0,-1.266571403E0,2.751021862E0,9.572310448E0
2.413494343E0,-1.235445857E0,2.741444588E0,9.601041794E0
2.415495676E0,-1.144463301E0,2.715107679E0,9.656110764E0
2.417497042E0,-1.110943556E0,2.657644987E0,9.665687561E0
2.419498375E0,-1.094183564E0,2.614548206E0,9.701601982E0
2.421499708E0,-1.072635174E0,2.518777132E0,9.720755577E0
2.423500741E0,-1.065452337E0,2.478074312E0,9.723150253E0
2.425502074E0,-1.051086664E0,2.346389294E0,9.742303848E0
2.427503407E0,-9.888355136E-1,2.214704275E0,9.814132690E0
2.429504773E0,-9.840469360E-1,2.157241583E0,9.850046158E0
2.431506106E0,-9.888355136E-1,2.025556564E0,9.895537376E0
2.433507439E0,-1.012778282E0,1.905842781E0,9.912297249E0
2.435508739E0,-1.000806928E0,1.860351562E0,9.926663399E0
2.437509505E0,-9.984126091E-1,1.745426297E0,9.926663399E0
2.439510838E0,-9.792584181E-1,1.625712633E0,9.960183144E0
2.441512204E0,-9.577099085E-1,1.582615614E0,9.991309166E0
2.443513537E0,-9.265843630E-1,1.486844659E0,1.007750225E1
2.445514870E0,-9.074301720E-1,1.429382086E0,1.009905148E1
2.447516236E0,-8.499675393E-1,1.374313712E0,1.021397591E1
2.449517569E0,-7.685621977E-1,1.321639657E0,1.030735302E1
2.451518902E0,-7.374366522E-1,1.312062621E0,1.034087276E1
2.453520268E0,-6.680026650E-1,1.288119793E0,1.042946148E1
2.455521601E0,-5.937801600E-1,1.278542757E0,1.051086617E1
2.457522934E0,-5.698373914E-1,1.297696948E0,1.055635738E1
2.459525000E0,-5.075862408E-1,1.343188167E0,1.066409969E1
2.461526333E0,-4.620950520E-1,1.376708031E0,1.077663136E1
2.463527666E0,-4.237866402E-1,1.400650740E0,1.081015110E1
2.465529032E0,-3.375927508E-1,1.482056141E0,1.088197899E1
2.467530365E0,-2.322446555E-1,1.589798450E0,1.092268181E1
2.469531698E0,-1.819648892E-1,1.618529797E0,1.098493290E1
2.471533031E0,-9.816526622E-2,1.723877907E0,1.103042412E1
2.473535064E0,-5.506832153E-2,1.776551962E0,1.104478931E1
2.475536397E0,3.830839694E-2,1.893871427E0,1.103760719E1
2.477538430E0,7.661679387E-2,2.013585091E0,1.102324104E1
2.479539763E0,1.197137386E-1,2.075836182E0,1.101126957E1
2.481541129E0,1.532335877E-1,2.200338602E0,1.098014450E1
2.483542795E0,1.987248063E-1,2.315263748E0,1.093704700E1
2.485544128E0,2.226675600E-1,2.360754967E0,1.090831566E1
2.487545494E0,2.657645047E-1,2.437371731E0,1.082451630E1
2.489547427E0,2.729473412E-1,2.521171331E0,1.077423668E1
2.491548760E0,2.633702159E-1,2.518777132E0,1.072395706E1
2.493550126E0,2.585816681E-1,2.588211060E0,1.067367744E1
2.495551526E0,2.585816681E-1,2.609759569E0,1.062100315E1
2.497553192E0,1.843591630E-1,2.609759569E0,1.055156898E1
2.499554558E0,1.652049571E-1,2.600182533E0,1.043664360E1
2.501555891E0,1.436564922E-1,2.607365370E0,1.037199879E1
2.503557224E0,1.364736706E-1,2.628913641E0,1.029777622E1
2.505558590E0,1.125309169E-1,2.633702278E0,1.019242764E1
2.507559923E0,9.337671846E-2,2.631308079E0,1.013735962E1
2.509561256E0,5.027977005E-2,2.621730804E0,1.003440571E1
2.511562622E0,4.549122229E-2,2.643279314E0,9.938634872E0
2.513563955E0,2.154847234E-2,2.648067951E0,9.873989105E0
2.515565288E0,-9.577099234E-2,2.667222023E0,9.797372818E0
2.517566654E0,-1.245022863E-1,2.727078915E0,9.771035194E0
2.519567287E0,-1.771763414E-1,2.774964571E0,9.739910126E0
2.521568620E0,-2.849186957E-1,2.858764172E0,9.689630508E0
2.523570253E0,-2.992843390E-1,2.918621063E0,9.680052757E0
2.525571586E0,-3.926610649E-1,3.000026226E0,9.668081284E0
2.527573119E0,-4.381522834E-1,3.162837029E0,9.629773140E0
2.529574485E0,-4.357580245E-1,3.241847992E0,9.624984741E0
2.531576085E0,-4.501236677E-1,3.409447432E0,9.610619545E0
2.533576718E0,-5.099805593E-1,3.553103924E0,9.567522049E0
2.535578084E0,-5.842030644E-1,3.610566378E0,9.522030830E0
2.537578717E0,-7.972934842E-1,3.691971779E0,9.471751213E0
2.539580050E0,-9.194015265E-1,3.775771379E0,9.428654671E0
2.541581383E0,-9.385557175E-1,3.835628271E0,9.404711723E0
2.543582716E0,-9.194015265E-1,3.945764780E0,9.368797302E0
2.545584049E0,-8.954587579E-1,3.996044636E0,9.342460632E0
2.547585382E0,-9.433442950E-1,4.082238674E0,9.328094482E0
2.549586115E0,-8.739103079E-1,4.204346657E0,9.280209541E0
2.551587481E0,-8.475732803E-1,4.237866402E0,9.241900444E0
2.553588814E0,-7.877163887E-1,4.295329094E0,9.191620827E0
2.555590147E0,-7.422251701E-1,4.369551659E0,9.158101082E0
2.557591513E0,-6.703969240E-1,4.395888329E0,9.146129608E0
2.559592846E0,-6.416656375E-1,4.403071404E0,9.155706406E0
2.561594712E0,-5.099805593E-1,4.419831276E0,9.155706406E0
2.563596078E0,-4.285751879E-1,4.427014351E0,9.179649353E0
2.565597711E0,-3.232271075E-1,4.348002911E0,9.239506721E0
2.567599044E0,-2.992843390E-1,4.292934895E0,9.277814865E0
2.569600410E0,-1.556278616E-1,4.218712330E0,9.371191978E0
2.571601743E0,3.351984918E-2,4.122941017E0,9.517242432E0
2.573603076E0,1.197137386E-1,4.082238674E0,9.579493523E0
2.575604109E0,2.561874092E-1,3.943370581E0,9.715967178E0
2.577605442E0,3.064671755E-1,3.790137053E0,9.806949615E0
2.579607908E0,3.543526828E-1,3.735068798E0,9.873989105E0
2.581609674E0,3.998439014E-1,3.600989342E0,1.001525116E1
2.583610740E0,3.806896806E-1,3.442967176E0,1.016848469E1
2.585612073E0,3.639297783E-1,3.368744612E0,1.023552513E1
2.587613239E0,3.615354896E-1,3.263396502E0,1.036960411E1
2.589614572E0,2.753416002E-1,3.138894320E0,1.041988373E1
2.591615638E0,2.130904645E-1,3.093403101E0,1.049889469E1
2.593617004E0,1.867534369E-1,3.028757572E0,1.056354046E1
2.595618004E0,1.819648892E-1,3.021574736E0,1.057551193E1
2.597619337E0,6.225114316E-2,2.971295118E0,1.063776302E1
2.599620703E0,9.577099234E-3,2.897072554E0,1.067846584E1
2.601622036E0,-3.351984918E-2,2.904255390E0,1.069761944E1
2.603623369E0,-1.077423692E-1,2.861158371E0,1.067607117E1
2.605624802E0,-2.083019018E-1,2.827638626E0,1.063776302E1
2.607626135E0,-2.154847383E-1,2.844398499E0,1.060903168E1
2.609627468E0,-1.340793967E-1,2.851581335E0,1.051804924E1
2.611628801E0,-2.585816681E-1,2.834821463E0,1.038636398E1
2.613630734E0,-3.735068738E-1,2.810878515E0,1.033129597E1
2.615632067E0,-4.836435020E-1,2.803695917E0,1.019721603E1
2.617633400E0,-5.315290093E-1,2.796513081E0,1.007750225E1
2.619634733E0,-5.363175869E-1,2.753416061E0,1.003201103E1
2.621635566E0,-5.554717779E-1,2.700742006E0,9.998491287E0
2.623636899E0,-5.889915824E-1,2.664827824E0,9.976943016E0
2.625637932E0,-6.608198285E-1,2.561874151E0,9.950606346E0
2.627639298E0,-6.368771195E-1,2.502017260E0,9.948211670E0
2.629640631E0,-5.889915824E-1,2.478074312E0,9.974549294E0
2.631641964E0,-4.644893110E-1,2.423006058E0,1.000327969E1
2.633643330E0,-3.806896806E-1,2.370332003E0,1.005834866E1
2.635644996E0,-3.782954216E-1,2.343995094E0,1.009426212E1
2.637646329E0,-4.501236677E-1,2.269772530E0,1.018285084E1
2.639646562E0,-4.142095447E-1,2.185972929E0,1.020679379E1
2.641647495E0,-3.998439014E-1,2.169213057E0,1.035763264E1
2.643648528E0,-4.118152559E-1,2.130904675E0,1.047016335E1
2.645649894E0,-4.022381604E-1,2.097384691E0,1.053480911E1
2.647651227E0,-4.142095447E-1,2.056682110E0,1.066170597E1
2.649652560E0,-4.405465722E-1,2.032739401E0,1.072635078E1
2.651653926E0,-4.453351200E-1,2.018373728E0,1.073114014E1
2.653655259E0,-3.471698463E-1,2.008796453E0,1.077663136E1
2.655657125E0,-3.663240373E-1,2.011190891E0,1.075987053E1
2.657658491E0,-5.123748183E-1,1.970488191E0,1.073832226E1
2.659659824E0,-6.871568561E-1,2.001613855E0,1.069761944E1
2.661661157E0,-8.188419938E-1,2.032739401E0,1.058987713E1
2.663662523E0,-8.260248303E-1,2.061470509E0,1.054199219E1
2.665664489E0,-8.308133483E-1,2.138087511E0,1.041749001E1
2.667665822E0,-8.475732803E-1,2.171607256E0,1.034087276E1
2.669667188E0,-9.265843630E-1,2.226675510E0,1.020200539E1
2.671668521E0,-9.984126091E-1,2.288926601E0,9.988914490E0
2.673669254E0,-1.012778282E0,2.293715239E0,9.907508850E0
2.675670620E0,-9.074301720E-1,2.348783493E0,9.754275322E0
2.677671953E0,-8.116591573E-1,2.415823221E0,9.658504486E0
2.679673286E0,-7.877163887E-1,2.444554567E0,9.629773140E0
2.681674619E0,-7.230709791E-1,2.523565531E0,9.596253395E0
2.683675952E0,-6.464542150E-1,2.588211060E0,9.569916725E0
2.685677285E0,-6.033572555E-1,2.638490915E0,9.562733650E0
2.687678618E0,-4.884320498E-1,2.703136206E0,9.550762177E0
2.689679951E0,-4.142095447E-1,2.743839025E0,9.574705124E0
2.691681317E0,-2.130904645E-1,2.770175934E0,9.613013268E0
2.693682650E0,-5.985686928E-2,2.791724443E0,9.653716087E0
2.695683983E0,-5.027977005E-2,2.782147408E0,9.670475960E0
2.697685349E0,-1.005595401E-1,2.746233225E0,9.735121727E0
2.699686349E0,-1.652049571E-1,2.695953369E0,9.775823593E0
2.701687682E0,-1.987248063E-1,2.674404860E0,9.821314812E0
2.703689348E0,-2.921015322E-1,2.662433624E0,9.885960579E0
2.705690681E0,-3.471698463E-1,2.645673752E0,9.921875000E0
2.707692014E0,-3.735068738E-1,2.662433624E0,9.943423271E0
2.709693380E0,-3.950553536E-1,2.667222023E0,9.943423271E0
2.711695146E0,-4.118152559E-1,2.705530643E0,9.912297249E0
2.713696479E0,-4.166038036E-1,2.724684715E0,9.862017632E0
2.715697645E0,-4.333637357E-1,2.782147408E0,9.759063721E0
2.717698978E0,-4.573064744E-1,2.808484316E0,9.739910126E0
2.719700311E0,-4.549122155E-1,2.875524044E0,9.634561539E0
2.721701677E0,-4.525179267E-1,2.949746609E0,9.560338974E0
2.723703010E0,-4.549122155E-1,2.971295118E0,9.517242432E0
2.725704243E0,-4.285751879E-1,3.019180536E0,9.428654671E0
2.727705609E0,-3.902668059E-1,3.086220264E0,9.325700760E0
2.729706942E0,-3.471698463E-1,3.105374336E0,9.301757812E0
2.731708275E0,-2.681587934E-1,3.126922846E0,9.208380699E0
2.733709641E0,-1.987248063E-1,3.136499882E0,9.124581337E0
2.735710974E0,-1.508393139E-1,3.136499882E0,9.069513321E0
2.737712307E0,-2.873129770E-2,3.153259993E0,8.995290756E0
2.739713673E0,2.154847234E-2,3.150865555E0,8.940221786E0
2.741715006E0,1.340793967E-1,3.153259993E0,8.856422424E0
2.743716339E0,2.921015322E-1,3.148471355E0,8.779806137E0
2.745717705E0,3.328042030E-1,3.124528646E0,8.755863190E0
2.747718705E0,5.123748183E-1,3.093403101E0,8.710371971E0
2.749720038E0,6.512427330E-1,3.043123245E0,8.707977295E0
2.751721371E0,7.278595567E-1,3.007209063E0,8.703188896E0
2.753722704E0,9.241901040E-1,2.959323645E0,8.746285439E0
2.755724037E0,1.091789365E0,2.887495518E0,8.791776657E0
2.757725370E0,1.185166001E0,2.877918243E0,8.837267876E0
2.759727036E0,1.369525194E0,2.820455790E0,8.945011139E0
2.761728402E0,1.565855742E0,2.784541607E0,8.973741531E0
2.763729735E0,1.664021015E0,2.743839025E0,9.064723969E0
2.765731068E0,1.850774407E0,2.717501879E0,9.167677879E0
2.767732434E0,1.953728199E0,2.683982134E0,9.222746849E0
2.769733767E0,2.121327400E0,2.672010660E0,9.356825829E0
2.771734667E0,2.305686712E0,2.643279314E0,9.483722687E0
2.773736033E0,2.396669149E0,2.638490915E0,9.545973778E0
2.775737366E0,2.557085514E0,2.624125242E0,9.656110764E0
2.777738532E0,2.719896078E0,2.626519442E0,9.735121727E0
2.779739898E0,2.810878515E0,2.619336605E0,9.761458397E0
2.781741231E0,3.004814863E0,2.643279314E0,9.802161217E0
2.783742564E0,3.119740009E0,2.645673752E0,9.826104164E0
2.785743330E0,3.172414064E0,2.672010660E0,9.802161217E0
2.787744663E0,3.320859194E0,2.698347807E0,9.775823593E0
2.789745996E0,3.399870157E0,2.710319042E0,9.756669998E0
2.791747362E0,3.553103924E0,2.734261751E0,9.720755577E0
2.793748695E0,3.672817469E0,2.743839025E0,9.639349937E0
2.795750028E0,3.735068798E0,2.760598898E0,9.589070320E0
2.797753361E0,4.017592907E0,2.774964571E0,9.531607628E0
2.799754694E0,4.101392746E0,2.774964571E0,9.459779739E0
2.801756027E0,4.194769382E0,2.774964571E0,9.447808266E0
2.803757393E0,4.333637238E0,2.758204460E0,9.375980377E0
2.805758726E0,4.529967785E0,2.722290516E0,9.323306084E0
2.807760392E0,4.604190350E0,2.707924843E0,9.311334610E0
2.809761758E0,4.776578426E0,2.669616461E0,9.251478195E0
2.811763091E0,4.850800991E0,2.624125242E0,9.222746849E0
2.813764091E0,4.987274647E0,2.609759569E0,9.184437752E0
2.815765457E0,5.123748302E0,2.549902678E0,9.148524284E0
2.817766790E0,5.157268047E0,2.518777132E0,9.141341209E0
2.819768123E0,5.305713177E0,2.502017260E0,9.086273193E0
2.821774556E0,5.437397957E0,2.444554567E0,9.040781975E0
2.823775889E0,5.466129303E0,2.403851986E0,9.019232750E0
2.825777222E0,5.516408920E0,2.377514839E0,8.954587936E0
2.827778555E0,5.595420361E0,2.343995094E0,8.873182297E0
2.829779888E0,5.688796997E0,2.358360767E0,8.832479477E0
2.831780888E0,5.858790398E0,2.375120640E0,8.748680115E0
2.833782221E0,5.930618763E0,2.394274712E0,8.664880753E0
2.835783554E0,5.973715782E0,2.406246185E0,8.633754730E0
2.837786454E0,6.067092419E0,2.418217659E0,8.530800819E0
2.839787787E0,6.134131908E0,2.446948767E0,8.478127480E0
2.841789120E0,6.244268894E0,2.509200096E0,8.360807419E0
2.843790486E0,6.294548512E0,2.557085514E0,8.241093636E0
2.845791819E0,6.318490982E0,2.597788095E0,8.181237221E0
2.847793152E0,6.390319347E0,2.657644987E0,8.037580490E0
2.849794518E0,6.466936111E0,2.705530643E0,7.956175327E0
2.851795851E0,6.505244732E0,2.748627424E0,7.929838181E0
2.853797184E0,6.610592842E0,2.786935806E0,7.903501034E0
2.855798550E0,6.706363678E0,2.796513081E0,7.893924236E0
2.857801550E0,6.754249096E0,2.806090117E0,7.886741161E0
2.859802883E0,6.744672298E0,2.806090117E0,7.889135361E0
2.861804249E0,6.653689861E0,2.782147408E0,7.951386452E0
2.863805249E0,6.598621368E0,2.760598898E0,7.939415455E0
2.865806582E0,6.478907585E0,2.712713242E0,7.929838181E0
2.867807948E0,6.416656494E0,2.669616461E0,7.939415455E0
2.869809281E0,6.313702583E0,2.597788095E0,7.944203854E0
2.871810614E0,6.179623127E0,2.533142805E0,7.934626579E0
2.873812314E0,6.114977837E0,2.513988495E0,7.941809654E0
2.875813647E0,5.985687256E0,2.458920240E0,7.905895233E0
2.877814980E0,5.882733345E0,2.387091875E0,7.862798691E0
2.879816346E0,5.803721905E0,2.360754967E0,7.862798691E0
2.883813912E0,5.286558628E0,2.197944164E0,7.755055904E0
2.885815278E0,5.195576191E0,2.166818619E0,7.750267506E0
2.887816611E0,5.085439682E0,2.121327400E0,7.709564686E0
2.889817944E0,4.996851444E0,2.094990492E0,7.692804813E0
2.891819644E0,4.846012115E0,2.030344963E0,7.637736797E0
2.893820977E0,4.733481407E0,2.001613855E0,7.601822376E0
2.895822310E0,4.666441441E0,1.999219418E0,7.565908432E0
2.899823476E0,4.436591148E0,1.889082789E0,7.393520832E0
2.901824776E0,4.357580185E0,1.879505754E0,7.376760483E0
2.903826042E0,4.264203548E0,1.848380208E0,7.309720993E0
2.905827308E0,4.223500729E0,1.798100352E0,7.237892628E0
2.907828608E0,4.211529255E0,1.802888989E0,7.223526955E0
2.909829641E0,4.199557781E0,1.759791970E0,7.192401409E0
2.911830907E0,4.209135056E0,1.745426297E0,7.175641537E0
2.913832207E0,4.199557781E0,1.702329397E0,7.120573044E0
2.915833473E0,4.166038036E0,1.647261024E0,7.060716629E0
2.919832406E0,4.120546818E0,1.608952641E0,7.010436535E0
2.921833672E0,4.163643837E0,1.599375606E0,7.024802208E0
2.923835272E0,4.197163582E0,1.589798450E0,7.039167881E0
2.925836572E0,4.326454639E0,1.592192769E0,7.029590607E0
2.927837838E0,4.467716694E0,1.568249941E0,7.017619610E0
2.929838838E0,4.532361984E0,1.573038578E0,6.988888264E0
2.931840138E0,4.659258842E0,1.585009933E0,6.957762718E0
2.933841404E0,4.819674969E0,1.587404251E0,6.919454098E0
2.935842704E0,4.927417755E0,1.592192769E0,6.854808807E0
2.937844004E0,5.068679810E0,1.582615614E0,6.826077461E0
2.939845137E0,5.138113976E0,1.608952641E0,6.797346115E0
2.941846437E0,5.293741703E0,1.664021015E0,6.763826370E0
2.943847737E0,5.423032284E0,1.709512234E0,6.773403645E0
2.945849003E0,5.487678051E0,1.738243461E0,6.773403645E0
2.947850303E0,5.628940105E0,1.766974807E0,6.830865860E0
2.949851603E0,5.751048088E0,1.788523316E0,6.873962879E0
2.951852869E0,5.782173634E0,1.778946161E0,6.909877300E0
2.953854169E0,5.846818924E0,1.810071707E0,6.955368519E0
2.955855469E0,5.834847927E0,1.822043180E0,6.907482624E0
2.957856802E0,5.839636326E0,1.788523316E0,6.850020409E0
2.959858168E0,5.837242126E0,1.762186289E0,6.691998005E0
2.961859501E0,5.844424725E0,1.711906433E0,6.591438770E0
2.963860834E0,5.818087578E0,1.630501151E0,6.352011204E0
2.965862200E0,5.786962032E0,1.549095750E0,6.110189438E0
2.967863533E0,5.753442287E0,1.508393168E0,5.980898380E0
2.969865099E0,5.710345268E0,1.417410731E0,5.743865490E0
2.971866465E0,5.638517380E0,1.324033976E0,5.545140266E0
2.973867798E0,5.609786034E0,1.280937076E0,5.461340904E0
2.975869131E0,5.554717541E0,1.189954638E0,5.332049847E0
2.977870497E0,5.475706577E0,1.096577883E0,5.248250484E0
2.979871830E0,5.439792156E0,1.051086664E0,5.224307537E0
2.981873163E0,5.432609558E0,9.241901040E-1,5.188393593E0
2.983874529E0,5.425426483E0,8.164477348E-1,5.197970390E0
2.985875862E0,5.418243885E0,7.709565163E-1,5.212336063E0
2.987877195E0,5.413455486E0,6.871568561E-1,5.226701736E0
2.989878828E0,5.413455486E0,6.560313106E-1,5.241067410E0
2.991880161E0,5.418243885E0,6.033572555E-1,5.310501575E0
2.993881494E0,5.504437923E0,6.033572555E-1,5.408666611E0
2.995882894E0,5.571477413E0,5.818088055E-1,5.458946705E0
2.997884294E0,5.693585396E0,5.530774593E-1,5.540351868E0
2.999885827E0,5.815693378E0,5.291347504E-1,5.648094177E0
3.001887227E0,5.877944469E0,5.339232683E-1,5.693585396E0
3.003888627E0,5.995264053E0,5.075862408E-1,5.772596359E0
3.005890027E0,6.182017326E0,5.099805593E-1,5.870761871E0
3.007891427E0,6.304125786E0,4.956148863E-1,5.913858891E0
3.009892593E0,6.464541912E0,5.171633363E-1,5.983292580E0
3.011893993E0,6.548341751E0,5.243461728E-1,6.007235527E0
3.013895393E0,6.766220570E0,5.482889414E-1,6.047938347E0
3.015896493E0,6.967339516E0,5.818088055E-1,6.100612164E0
3.017898226E0,7.084659100E0,6.081457734E-1,6.095823765E0
3.019899626E0,7.352818012E0,6.129343510E-1,6.071880817E0
3.021901026E0,7.597033978E0,6.296942830E-1,6.055120945E0
3.023902426E0,7.731113434E0,6.392713785E-1,6.040755272E0
3.025903826E0,7.965752125E0,6.344828010E-1,5.992869854E0
3.027905226E0,8.133351326E0,6.680026650E-1,5.942590237E0
3.029906626E0,8.190814018E0,6.895511150E-1,5.933012962E0
3.031908026E0,8.353624344E0,7.063110471E-1,5.865973473E0
3.033909426E0,8.454184532E0,6.847625971E-1,5.842030525E0
3.035910826E0,8.581081390E0,6.823683381E-1,5.798933506E0
3.037912226E0,8.650514603E0,6.847625971E-1,5.719922543E0
3.039913626E0,8.662486076E0,6.799740195E-1,5.669642925E0
3.041915026E0,8.643332481E0,6.680026650E-1,5.600208759E0
3.043916426E0,8.719948769E0,6.440598965E-1,5.537957668E0
3.045922659E0,8.734314919E0,6.344828010E-1,5.487678051E0
3.047924092E0,8.672063828E0,6.033572555E-1,5.375146866E0
3.049925158E0,8.588263512E0,5.770202279E-1,5.265010357E0
3.051926558E0,8.559532166E0,5.315290093E-1,5.219519138E0
3.053927991E0,8.487704277E0,4.836435020E-1,5.095016956E0
3.055929324E0,8.394327164E0,4.429408312E-1,5.049525738E0
3.057930657E0,8.344047546E0,4.237866402E-1,4.951360226E0
3.059932023E0,8.231516838E0,4.094209969E-1,4.872349262E0
3.061933356E0,8.181237221E0,3.878725171E-1,4.855589390E0
3.063934689E0,7.982511997E0,3.830839694E-1,4.814886570E0
3.065936055E0,7.805335999E0,3.495641351E-1,4.817280769E0
3.067937388E0,7.757450581E0,3.351984620E-1,4.788549423E0
3.069939254E0,7.683228016E0,2.968900800E-1,4.767001152E0
3.071940620E0,7.556331158E0,2.154847383E-1,4.776578426E0
3.073941653E0,7.494080067E0,1.747820675E-1,4.776578426E0
3.075943286E0,7.352818012E0,1.029538140E-1,4.738269806E0
3.077944319E0,7.201978683E0,5.506832153E-2,4.726298332E0
3.079945652E0,7.134938717E0,3.112557158E-2,4.759818554E0
3.081946985E0,6.981705189E0,-3.591412306E-2,4.776578426E0
3.083948618E0,6.847625732E0,-1.077423692E-1,4.783761024E0
3.085949951E0,6.799740314E0,-1.412622184E-1,4.790944099E0
3.087951284E0,6.756643295E0,-2.274561077E-1,4.781366825E0
3.089958717E0,6.699181080E0,-3.112557232E-1,4.750241280E0
3.091960050E0,6.668055534E0,-3.256213665E-1,4.752635479E0
3.093961383E0,6.632141113E0,-3.639297783E-1,4.726298332E0
3.095962516E0,6.612987041E0,-3.759011328E-1,4.702355862E0
3.097963849E0,6.543552876E0,-3.974496126E-1,4.695172787E0
3.099970949E0,6.517216206E0,-4.022381604E-1,4.656864643E0
3.101972315E0,6.512427330E0,-3.950553536E-1,4.664047241E0
3.103973648E0,6.517216206E0,-3.854782581E-1,4.668835640E0
3.107971481E0,6.560312748E0,-3.351984620E-1,4.704750061E0
3.109973147E0,6.586649895E0,-2.729473412E-1,4.723904133E0
3.111974480E0,6.610592842E0,-2.370332032E-1,4.731087208E0
3.113975813E0,6.680026531E0,-1.723877788E-1,4.731087208E0
3.115977146E0,6.689603806E0,-1.221080124E-1,4.738269806E0
3.117978512E0,6.699181080E0,-6.703969836E-2,4.723904133E0
3.119979845E0,6.766220570E0,-2.154847234E-2,4.702355862E0
3.121981678E0,6.826077461E0,1.436564885E-2,4.697566986E0
3.123983044E0,6.847625732E0,2.394274808E-2,4.683201313E0
3.125984377E0,6.876357079E0,4.549122229E-2,4.644893169E0
3.127985710E0,6.921848297E0,6.225114316E-2,4.589824677E0
3.129986776E0,6.914665699E0,5.746259540E-2,4.573064804E0
3.131988109E0,6.924242973E0,4.788549617E-2,4.501236439E0
3.133989742E0,6.924242973E0,4.549122229E-2,4.455745220E0
3.135994775E0,6.902694225E0,1.197137404E-2,4.403071404E0
3.141379702E0,6.852414608E0,-2.873129770E-2,4.359974384E0
3.143381335E0,6.840443134E0,-5.027977005E-2,4.343214512E0
3.145382701E0,6.845231533E0,-1.364736706E-1,4.292934895E0
3.147383767E0,6.854808807E0,-2.322446555E-1,4.259414673E0
3.149385100E0,6.866780281E0,-2.705530524E-1,4.249837875E0
3.151386466E0,6.890722752E0,-3.711125851E-1,4.204346657E0
3.155383065E0,6.893116951E0,-4.644893110E-1,4.166038036E0
3.157384431E0,6.931425571E0,-5.674431324E-1,4.130124092E0
3.159385997E0,6.952973843E0,-6.680026650E-1,4.144489765E0
3.161387330E0,7.094236374E0,-7.589851022E-1,4.151672363E0
3.165384263E0,7.247469902E0,-8.284190893E-1,4.142095566E0
3.167385596E0,7.391126156E0,-8.379961848E-1,4.137306690E0
3.169386962E0,7.489291668E0,-8.188419938E-1,4.132518291E0
3.171388295E0,7.498868465E0,-7.948992252E-1,4.161249638E0
3.173389628E0,7.599428177E0,-7.470137477E-1,4.201952457E0
3.175390994E0,7.699987888E0,-7.110996246E-1,4.268991947E0
3.177392327E0,7.747873306E0,-6.847625971E-1,4.300117493E0
3.179393660E0,7.812518597E0,-6.273000240E-1,4.350397110E0
3.181394993E0,7.874769688E0,-6.177229285E-1,4.410254002E0
3.183396326E0,7.920260906E0,-6.153286099E-1,4.448562622E0
3.185396826E0,8.061523438E0,-5.889915824E-1,4.513207912E0
3.187398159E0,8.123774529E0,-5.842030644E-1,4.537150860E0
3.189399492E0,8.236305237E0,-5.674431324E-1,4.582642078E0
3.191400858E0,8.348835945E0,-5.530774593E-1,4.570670605E0
3.193402191E0,8.399115562E0,-5.339232683E-1,4.580247879E0
3.195403524E0,8.490098000E0,-5.075862408E-1,4.575459003E0
3.197404890E0,8.530800819E0,-4.668835998E-1,4.532361984E0
3.201403889E0,8.482915878E0,-3.950553536E-1,4.479688168E0
3.203404955E0,8.461367607E0,-3.543526828E-1,4.455745220E0
3.205406288E0,8.470944405E0,-3.351984620E-1,4.431802750E0
3.207407621E0,8.466156006E0,-2.968900800E-1,4.393494129E0
3.209408987E0,8.454184532E0,-2.729473412E-1,4.371945858E0
3.211410320E0,8.406298637E0,-2.442160249E-1,4.307300568E0
3.213411653E0,8.423058510E0,-1.963305324E-1,4.245049000E0
3.215413019E0,8.425453186E0,-1.723877788E-1,4.182797909E0
3.217414619E0,8.423058510E0,-1.556278616E-1,4.101392746E0
3.219415952E0,8.379961967E0,-1.340793967E-1,3.991255999E0
3.221417318E0,8.336864471E0,-1.340793967E-1,3.881119490E0
3.223418651E0,8.308133125E0,-1.245022863E-1,3.835628271E0
3.225419984E0,8.269824982E0,-1.747820675E-1,3.703943014E0
3.227421050E0,8.272219658E0,-1.963305324E-1,3.646480560E0
3.229422383E0,8.200390816E0,-2.154847383E-1,3.569863796E0
3.231423716E0,8.109408379E0,-2.202732861E-1,3.536343813E0
3.233425082E0,8.090254784E0,-2.490045726E-1,3.462121487E0
3.235426448E0,8.140534401E0,-2.992843390E-1,3.378321648E0
3.237427781E0,8.202785492E0,-3.447755575E-1,3.318464994E0
3.239429147E0,8.197997093E0,-4.549122155E-1,3.246636629E0
3.241430480E0,8.090254784E0,-4.644893110E-1,3.213116884E0
3.243431813E0,8.037580490E0,-4.740664065E-1,3.217905283E0
3.245433513E0,8.049551964E0,-5.171633363E-1,3.205934048E0
3.247434846E0,8.078283310E0,-5.985686779E-1,3.186779737E0
3.249436179E0,8.114197731E0,-6.560313106E-1,3.179596901E0
3.251437512E0,8.152505875E0,-7.805336118E-1,3.215511084E0
3.253438845E0,8.169265747E0,-8.739103079E-1,3.191568375E0
3.255440178E0,8.171659470E0,-9.289786220E-1,3.193962574E0
3.257441511E0,8.150111198E0,-1.019961119E0,3.162837029E0
3.259442844E0,8.135746002E0,-1.046298146E0,3.177202702E0
3.261444210E0,8.147717476E0,-1.070240855E0,3.191568375E0
3.263445543E0,8.174054146E0,-1.077423692E0,3.246636629E0
3.265446876E0,8.197997093E0,-1.067846537E0,3.304099321E0
3.267448242E0,8.365595818E0,-1.058269501E0,3.380716085E0
3.269449575E0,8.628966331E0,-1.063058019E0,3.404658794E0
3.271451908E0,8.734314919E0,-1.041509509E0,3.404658794E0
3.273453274E0,8.959376335E0,-1.027143836E0,3.385504484E0
3.275454607E0,9.275420189E0,-1.051086664E0,3.373533249E0
3.277455673E0,9.435836792E0,-1.048692346E0,3.383110285E0
3.279457039E0,9.696812630E0,-9.984126091E-1,3.387898922E0
3.281458372E0,9.950606346E0,-9.074301720E-1,3.395081758E0
3.283460005E0,1.005595398E1,-8.427847624E-1,3.423812866E0
3.285461371E0,1.023791885E1,-7.134938836E-1,3.498035431E0
3.287468137E0,1.057551193E1,-6.584255695E-1,3.555498123E0
3.289469470E0,1.076944828E1,-6.392713785E-1,3.572257996E0
3.291471536E0,1.116210938E1,-5.506832004E-1,3.725491524E0
3.293475902E0,1.132731438E1,-5.315290093E-1,3.790137053E0
3.295477202E0,1.154040432E1,-4.788549542E-1,3.957736254E0
3.297478568E0,1.167448425E1,-3.830839694E-1,4.075055599E0
3.299479901E0,1.166969585E1,-3.208328187E-1,4.106181145E0
3.301481234E0,1.161462688E1,-1.891477108E-1,4.146883965E0
3.303482600E0,1.143026829E1,-3.591412306E-2,4.142095566E0
3.305483933E0,1.134167957E1,4.788549617E-3,4.142095566E0
3.307485266E0,1.109985828E1,3.830839694E-2,4.144489765E0
3.309486632E0,1.099690437E1,2.633702382E-2,4.067873001E0
3.311487965E0,1.091071033E1,-5.746259540E-2,3.869148016E0
3.313488965E0,1.073353386E1,-1.029538140E-1,3.684788942E0
3.315490331E0,1.056832886E1,-9.577099234E-2,3.598595142E0
3.317491664E0,1.026425648E1,-8.140534163E-2,3.371139050E0
3.319492997E0,1.007510853E1,-1.388679445E-1,3.122134447E0
3.321494563E0,9.979337692E0,-1.699935049E-1,2.995237827E0
3.323495896E0,9.771035194E0,-2.394274771E-1,2.748627424E0
3.325497229E0,9.634561539E0,-3.328042030E-1,2.454131603E0
3.327498562E0,9.572310448E0,-3.711125851E-1,2.329629421E0
3.329499895E0,9.476539612E0,-3.998439014E-1,2.008796453E0
3.331500261E0,9.471751213E0,-5.315290093E-1,1.862745762E0
3.333501594E0,9.478934288E0,-5.913859010E-1,1.625712633E0
3.335502927E0,9.565128326E0,-7.182824612E-1,1.276148438E0
3.337504293E0,9.735121727E0,-8.212362528E-1,1.113337755E0
3.339505626E0,1.007989693E1,-1.108549237E0,8.140534163E-1
3.341506959E0,1.033129597E1,-1.340793848E0,5.578660369E-1
3.343508025E0,1.043424988E1,-1.462901950E0,4.046324492E-1
3.345509358E0,1.063776302E1,-1.692752242E0,9.337671846E-2
3.349506924E0,1.092507553E1,-1.948939681E0,-3.232271075E-1
3.351507557E0,1.105197239E1,-2.068653345E0,-6.512427330E-1
3.355507223E0,1.121238899E1,-2.245829821E0,-1.120520592E0
3.357508556E0,1.135604572E1,-2.341600657E0,-1.453324795E0
3.359509889E0,1.144223976E1,-2.372726440E0,-1.606558442E0
3.361511255E0,1.155716419E1,-2.408640385E0,-1.857957244E0
3.363512588E0,1.156913567E1,-2.434977531E0,-2.121327400E0
3.365513921E0,1.157392406E1,-2.420611858E0,-2.241041183E0
3.367515287E0,1.154998207E1,-2.423006058E0,-2.506805658E0
3.369516620E0,1.142308521E1,-2.365543604E0,-2.719896078E0
3.371517953E0,1.136562252E1,-2.339206457E0,-2.825244188E0
3.373519653E0,1.121238899E1,-2.245829821E0,-3.033546209E0
3.375520986E0,1.113337803E1,-2.171607256E0,-3.189173937E0
3.377522319E0,1.109985828E1,-2.121327400E0,-3.241847992E0
3.379523685E0,1.104718399E1,-2.085413456E0,-3.325647593E0
3.381524785E0,1.100887585E1,-2.049499273E0,-3.366350412E0
3.383526118E0,1.098014450E1,-1.958516836E0,-3.462121487E0
3.385527484E0,1.100408745E1,-1.910631299E0,-3.507612705E0
3.387528817E0,1.099450970E1,-1.853168726E0,-3.524372578E0
3.389530150E0,1.092268181E1,-1.726272106E0,-3.478881359E0
3.391531483E0,1.087000751E1,-1.620923996E0,-3.411841631E0
3.393532816E0,1.085803604E1,-1.570644259E0,-3.380716085E0
3.395534149E0,1.086761379E1,-1.448536277E0,-3.270579338E0
3.397535482E0,1.087719059E1,-1.359948039E0,-3.158048391E0
3.399536815E0,1.086521912E1,-1.304879785E0,-3.117345810E0
3.401538181E0,1.085324764E1,-1.154040456E0,-2.973689318E0
3.403539514E0,1.085803604E1,-1.058269501E0,-2.913832426E0
3.405540847E0,1.079578495E1,-9.936240315E-1,-2.743839025E0
3.407542213E0,1.069761944E1,-8.116591573E-1,-2.542719841E0
3.409543546E0,1.069283104E1,-6.823683381E-1,-2.418217659E0
3.411544879E0,1.071198559E1,-4.812492430E-1,-2.142875910E0
3.413545912E0,1.060424328E1,-3.160442710E-1,-1.905842781E0
3.415547245E0,1.059706020E1,-2.537931204E-1,-1.778946161E0
3.417548578E0,1.064255142E1,-1.364736706E-1,-1.458113313E0
3.419549611E0,1.056354046E1,-9.098244458E-2,-1.177983165E0
3.421550944E0,1.056832886E1,-5.267404765E-2,-1.012778282E0
3.423552277E0,1.074550533E1,9.098244458E-2,-6.871568561E-1
3.425556943E0,1.082930470E1,2.370332032E-1,-3.423812985E-1
3.427558276E0,1.084606457E1,2.992843390E-1,-1.795706153E-1
3.429559609E0,1.096098995E1,4.094209969E-1,1.628106833E-1
3.431560975E0,1.104478931E1,4.740664065E-1,3.399870098E-1
3.433562308E0,1.128661156E1,6.656084061E-1,7.134938836E-1
3.435563641E0,1.147097015E1,8.140534163E-1,1.094183564E0
3.437565007E0,1.144702816E1,8.308133483E-1,1.216291547E0
3.439566340E0,1.142547894E1,8.499675393E-1,1.477267504E0
3.441567673E0,1.154040432E1,1.024749637E0,1.735849261E0
3.443569039E0,1.159307861E1,1.106154919E0,1.891477108E0
3.445570305E0,1.146378803E1,1.101366401E0,2.214704275E0
3.447571605E0,1.142547894E1,1.223474383E0,2.415823221E0
3.449572971E0,1.154998207E1,1.359948039E0,2.492439985E0
3.451574304E0,1.151885605E1,1.407833576E0,2.602576733E0
3.453575637E0,1.159307861E1,1.479661822E0,2.645673752E0
3.455577103E0,1.157871342E1,1.515576005E0,2.731867552E0
3.457578436E0,1.152603912E1,1.465296149E0,2.739050388E0
3.459579769E0,1.151167297E1,1.465296149E0,2.743839025E0
3.461581102E0,1.126985168E1,1.321639657E0,2.748627424E0
3.463582435E0,1.133449650E1,1.347976685E0,2.818061352E0
3.465583768E0,1.151885605E1,1.391073704E0,2.808484316E0
3.467585101E0,1.193067169E1,1.424593568E0,2.741444588E0
3.469586434E0,1.241192055E1,1.340793848E0,2.727078915E0
3.471588134E0,1.267289639E1,1.264177084E0,2.700742006E0
3.473589800E0,1.315653992E1,1.053480864E0,2.715107679E0
3.475591133E0,1.356835556E1,7.877163887E-1,2.741444588E0
3.477592499E0,1.368806934E1,6.201171875E-1,2.779752970E0
3.479594165E0,1.384848595E1,2.944957912E-1,2.813272953E0
3.481595498E0,1.388439941E1,1.173194647E-1,2.806090117E0
3.483596864E0,1.398495960E1,-2.130904645E-1,2.791724443E0
3.487596230E0,1.402566147E1,-7.996878028E-1,2.660039425E0
3.489598296E0,1.401608467E1,-1.180377483E0,2.492439985E0
3.491599629E0,1.385566807E1,-1.486844659E0,2.332023621E0
3.493600962E0,1.379341698E1,-1.640078187E0,2.233858347E0
3.495602328E0,1.359708691E1,-1.903448462E0,2.083019018E0
3.497603661E0,1.337441921E1,-2.130904675E0,1.884294271E0
3.499604994E0,1.324033928E1,-2.233858347E0,1.793311834E0
3.501606360E0,1.294584370E1,-2.389486313E0,1.637683988E0
3.503607693E0,1.277585030E1,-2.473285913E0,1.577827096E0
3.505609093E0,1.244544029E1,-2.492439985E0,1.450930476E0
3.507610493E0,1.215333939E1,-2.535537004E0,1.364736676E0
3.509611826E0,1.202883625E1,-2.528354168E0,1.338399649E0
3.511613159E0,1.179180336E1,-2.499622822E0,1.268965602E0
3.513614525E0,1.158589554E1,-2.408640385E0,1.237840056E0
3.515615758E0,1.148533630E1,-2.348783493E0,1.230657220E0
3.517617091E0,1.132013130E1,-2.212309837E0,1.252205729E0
3.519618457E0,1.117647457E1,-2.056682110E0,1.321639657E0
3.521619790E0,1.100408745E1,-1.855562925E0,1.410227895E0
3.523621123E0,1.091310501E1,-1.776551962E0,1.450930476E0
3.525622489E0,1.072395706E1,-1.553884387E0,1.570644259E0
3.527623822E0,1.064015770E1,-1.441353440E0,1.637683988E0
3.529625155E0,1.047016335E1,-1.237840056E0,1.778946161E0
3.531626155E0,1.041509533E1,-1.130097747E0,1.867534399E0
3.533627488E0,1.029777622E1,-9.050358534E-1,2.001613855E0
3.535628821E0,1.016609097E1,-6.799740195E-1,2.123721838E0
3.537630154E0,1.007989693E1,-5.818088055E-1,2.183578730E0
3.539631487E0,9.924268723E0,-3.950553536E-1,2.272166729E0
3.541632853E0,9.794978142E0,-2.537931204E-1,2.367937803E0
3.543634186E0,9.711178780E0,-2.059076279E-1,2.387091875E0
3.545635519E0,9.569916725E0,-1.388679445E-1,2.396669149E0
3.547636885E0,9.431048393E0,-1.101366431E-1,2.360754967E0
3.549637518E0,9.330489159E0,-1.101366431E-1,2.327235222E0
3.551638851E0,9.150918007E0,-1.699935049E-1,2.291321039E0
3.553640217E0,9.062330246E0,-1.915419847E-1,2.236252785E0
3.555641550E0,8.830085754E0,-2.442160249E-1,2.150058746E0
3.557648416E0,8.528407097E0,-3.615354896E-1,2.001613855E0
3.559649782E0,8.356019020E0,-4.453351200E-1,1.934574008E0
3.561651115E0,8.051946640E0,-6.033572555E-1,1.771763325E0
3.563652148E0,7.790970325E0,-7.302538157E-1,1.654443860E0
3.565653514E0,7.721536160E0,-7.613793612E-1,1.618529797E0
3.567654847E0,7.575485706E0,-8.140534163E-1,1.551490068E0
3.569656180E0,7.462954521E0,-7.541965842E-1,1.496421814E0
3.571657546E0,7.422251701E0,-7.230709791E-1,1.482056141E0
3.573658879E0,7.185218811E0,-7.158881426E-1,1.429382086E0
3.575660212E0,7.024802208E0,-6.775797606E-1,1.400650740E0
3.577661578E0,6.991282463E0,-6.560313106E-1,1.405439258E0
3.579662911E0,6.818894863E0,-5.842030644E-1,1.405439258E0
3.581664244E0,6.653689861E0,-4.716721475E-1,1.458113313E0
3.583665610E0,6.553130150E0,-4.357580245E-1,1.470084786E0
3.585666943E0,6.435810566E0,-2.442160249E-1,1.450930476E0
3.587668276E0,6.438204765E0,-1.460507661E-1,1.484450340E0
3.589669642E0,6.349617004E0,1.915419847E-2,1.505998850E0
3.591670975E0,6.378347874E0,2.202732861E-1,1.537124395E0
3.593672308E0,6.438204765E0,3.471698463E-1,1.541913033E0
3.595673674E0,6.409473896E0,5.243461728E-1,1.479661822E0
3.597675007E0,6.569890022E0,7.805336118E-1,1.417410731E0
3.599676340E0,6.610592842E0,8.858816624E-1,1.374313712E0
3.601677673E0,6.840443134E0,1.120520592E0,1.247417212E0
3.603679006E0,6.998465061E0,1.254600048E0,1.194743156E0
3.605680339E0,7.223526955E0,1.541913033E0,1.127703428E0
3.607682872E0,7.522811413E0,1.862745762E0,1.058269501E0
3.609684205E0,7.587456703E0,1.958516836E0,1.043903828E0
3.611685571E0,7.893924236E0,2.291321039E0,1.067846537E0
3.613686904E0,8.078283310E0,2.466103077E0,1.079817891E0
3.615688237E0,8.138139725E0,2.518777132E0,1.067846537E0
3.619685403E0,8.561926842E0,2.774964571E0,1.302485466E0
3.621686736E0,8.595446587E0,2.777358770E0,1.398256540E0
3.623688402E0,8.751074791E0,2.796513081E0,1.656838179E0
3.625689735E0,8.849239349E0,2.825244188E0,1.766974807E0
3.627691068E0,9.009655952E0,2.808484316E0,1.977671027E0
3.629692434E0,9.110215187E0,2.712713242E0,2.205127001E0
3.631693767E0,9.143735886E0,2.645673752E0,2.276955366E0
3.633695100E0,9.203592300E0,2.487651587E0,2.415823221E0
3.635696133E0,9.304151535E0,2.348783493E0,2.547508478E0
3.637697466E0,9.364008904E0,2.262589693E0,2.607365370E0
3.639698799E0,9.380768776E0,2.047105074E0,2.691164970E0
3.641700165E0,9.289786339E0,1.747820616E0,2.765387297E0
3.643701498E0,9.244295120E0,1.596981287E0,2.767781734E0
3.645702831E0,9.129369736E0,1.268965602E0,2.758204460E0
3.647704197E0,8.937828064E0,9.601042271E-1,2.724684715E0
3.649705530E0,8.842057228E0,8.140534163E-1,2.736656189E0
3.651706863E0,8.648120880E0,5.195576549E-1,2.774964571E0
3.653708229E0,8.559532166E0,3.854782581E-1,2.796513081E0
3.655709562E0,8.365595818E0,2.059076279E-1,2.794118643E0
3.657710895E0,8.174054146E0,6.943397224E-2,2.813272953E0
3.659712428E0,8.102226257E0,3.591412306E-2,2.834821463E0
3.661714461E0,8.001666069E0,-5.746259540E-2,2.885101080E0
3.663715794E0,7.886741161E0,-6.943397224E-2,2.956929445E0
3.665717160E0,7.838855743E0,-8.140534163E-2,3.021574736E0
3.667717293E0,7.798152924E0,-5.506832153E-2,3.124528646E0
3.669718626E0,7.697593689E0,3.112557158E-2,3.246636629E0
3.671719959E0,7.683228016E0,6.703969836E-2,3.301704884E0
3.673721292E0,7.656890869E0,1.819648892E-1,3.447755814E0
3.675722625E0,7.613793850E0,3.208328187E-1,3.498035431E0
3.677723958E0,7.544359684E0,3.782954216E-1,3.574652195E0
3.679725291E0,7.494080067E0,4.501236677E-1,3.634509087E0
3.681726657E0,7.467742920E0,5.004034638E-1,3.653663397E0
3.683727990E0,7.431828976E0,5.315290093E-1,3.632114887E0
3.685729323E0,7.340846539E0,5.123748183E-1,3.586623669E0
3.687730689E0,7.252258301E0,5.123748183E-1,3.517189741E0
3.689732022E0,7.173247337E0,4.597007632E-1,3.380716085E0
3.691733355E0,7.053533554E0,3.543526828E-1,3.213116884E0
3.693734721E0,6.941002846E0,2.968900800E-1,3.141288519E0
3.695736387E0,6.826077461E0,1.939362586E-1,2.935380936E0
3.697737720E0,6.754249096E0,5.506832153E-2,2.604970932E0
3.699739086E0,6.718335152E0,-1.915419847E-2,2.454131603E0
3.701740419E0,6.593832970E0,-1.795706153E-1,2.250618219E0
3.703741752E0,6.557918549E0,-2.561874092E-1,2.169213057E0
3.705743118E0,6.481301785E0,-4.477293789E-1,1.963305354E0
3.707744384E0,6.395108223E0,-6.680026650E-1,1.829225898E0
3.709745650E0,6.328068256E0,-7.661679387E-1,1.762186289E0
3.711746683E0,6.234691620E0,-9.074301720E-1,1.611346960E0
3.713748016E0,6.217931747E0,-9.840469360E-1,1.505998850E0
3.715749349E0,6.203566074E0,-1.019961119E0,1.508393168E0
3.717750715E0,6.215537548E0,-1.041509509E0,1.534730196E0
3.719751881E0,6.282577038E0,-1.005595446E0,1.553884387E0
3.721752514E0,6.352011204E0,-1.005595446E0,1.580221415E0
3.723753880E0,6.438204765E0,-9.648927450E-1,1.664021015E0
3.725755213E0,6.416656494E0,-9.265843630E-1,1.711906433E0
3.727756546E0,6.524398804E0,-8.451790214E-1,1.848380208E0
3.729757912E0,6.756643295E0,-6.799740195E-1,2.035133600E0
3.731759245E0,6.952973843E0,-5.578660369E-1,2.145270348E0
3.733760578E0,7.213950157E0,-4.022381604E-1,2.396669149E0
3.735761944E0,7.472531796E0,-3.950553536E-1,2.648067951E0
3.737765544E0,7.661679268E0,-4.525179267E-1,2.791724443E0
3.739766877E0,7.937020779E0,-4.812492430E-1,3.081431627E0
3.741768210E0,8.272219658E0,-4.189980924E-1,3.280156374E0
3.743769543E0,8.423058510E0,-3.711125851E-1,3.335224867E0
3.745770876E0,8.818114281E0,-2.825244367E-1,3.457332850E0
3.747772209E0,9.258660316E0,-2.274561077E-1,3.531555414E0
3.749773542E0,9.433443069E0,-1.939362586E-1,3.720703125E0
3.751775608E0,9.737515450E0,-1.053480953E-1,3.821262598E0
3.753776941E0,9.845257759E0,-3.830839694E-2,3.919427872E0
3.755779607E0,9.964971542E0,9.577099234E-2,4.003227711E0
3.757780973E0,9.967366219E0,2.442160249E-1,3.976890564E0
3.759782306E0,9.957788467E0,3.160442710E-1,3.912245035E0
3.761783639E0,9.979337692E0,4.046324492E-1,3.739857197E0
3.763785005E0,1.001525116E1,4.980091453E-1,3.589017868E0
3.765786605E0,1.002482891E1,5.602602959E-1,3.517189741E0
3.767788005E0,1.002004051E1,6.823683381E-1,3.316070557E0
3.769790505E0,1.008708000E1,7.518022656E-1,3.251425266E0
3.771792171E0,1.013257122E1,7.757450342E-1,3.138894320E0
3.773793504E0,1.006792545E1,6.153286099E-1,3.011997700E0
3.775794870E0,9.972154617E0,5.219519138E-1,2.822849989E0
3.777796203E0,9.656110764E0,4.740664065E-1,2.406246185E0
3.779797536E0,9.251478195E0,5.147690773E-1,1.910631299E0
3.781798902E0,9.112609863E0,4.836435020E-1,1.656838179E0
3.783800235E0,8.894730568E0,4.501236677E-1,1.015172482E0
3.785801568E0,8.707977295E0,4.908263385E-1,2.657645047E-1
3.787802934E0,8.650514603E0,5.746259689E-1,-1.652049571E-1
3.789804267E0,8.470944405E0,6.608198285E-1,-9.553156495E-1
3.791805600E0,8.243488312E0,7.805336118E-1,-1.728666425E0
3.793806966E0,8.116591454E0,8.284190893E-1,-2.123721838E0
3.795808299E0,8.083071709E0,7.230709791E-1,-2.932986736E0
3.799808731E0,8.020820618E0,4.932205975E-1,-4.199557781E0
3.801810064E0,7.970541000E0,1.292908341E-1,-4.810098171E0
3.803816864E0,8.054340363E0,-2.513988614E-1,-5.387118340E0
3.805818230E0,8.073494911E0,-4.525179267E-1,-5.717528343E0
3.807819563E0,8.075888634E0,-7.829278708E-1,-6.311308384E0
3.809820896E0,8.056735039E0,-9.601042271E-1,-6.579467297E0
3.811821529E0,8.061523438E0,-1.256994247E0,-7.084659100E0
3.813822862E0,7.956175327E0,-1.498816013E0,-7.491685867E0
3.815822862E0,7.843644142E0,-1.587404251E0,-7.501263142E0
3.817824195E0,7.711959362E0,-1.755003452E0,-7.292961121E0
3.819825528E0,7.745479107E0,-1.819648862E0,-7.249864101E0
3.821826861E0,7.771816254E0,-1.699935079E0,-7.453377247E0
3.823828194E0,7.764633179E0,-1.599375606E0,-7.537177086E0
3.825829260E0,7.738296032E0,-1.482056141E0,-7.513234138E0
3.827830626E0,7.824490070E0,-1.343188167E0,-7.237892628E0
3.829830892E0,7.956175327E0,-1.266571403E0,-6.809317589E0
3.831832225E0,8.028003693E0,-1.261782765E0,-6.505244732E0
3.833833591E0,8.207573891E0,-1.324033976E0,-5.904281616E0
3.835834924E0,8.482915878E0,-1.304879785E0,-5.545140266E0
3.837836257E0,8.648120880E0,-1.273754239E0,-5.418243885E0
3.839837623E0,9.052753448E0,-1.122914910E0,-5.418243885E0
3.841838956E0,9.390345573E0,-1.055875182E0,-5.523591995E0
3.843840289E0,9.534002304E0,-1.084606528E0,-5.540351868E0
3.845841655E0,9.680052757E0,-1.264177084E0,-5.763019562E0
3.847842988E0,9.692024231E0,-1.273754239E0,-5.956955910E0
3.849844321E0,9.766246796E0,-1.228263021E0,-6.603409767E0
3.851845687E0,9.984126091E0,-1.125309110E0,-8.023215294E0
3.853847020E0,1.003680038E1,-1.098972082E0,-8.813325882E0
3.855848353E0,9.986519814E0,-1.144463301E0,-1.027862167E1
3.857849719E0,9.893143654E0,-1.319245458E0,-1.170800400E1
3.859851052E0,9.842864037E0,-1.379102230E0,-1.250529766E1
3.861852385E0,9.883566856E0,-1.388679385E0,-1.401847935E1
3.865849618E0,1.014693642E1,-1.553884387E0,-1.615896034E1
3.867850951E0,1.032890129E1,-1.834014535E0,-1.730102921E1
3.869859084E0,1.032650757E1,-2.276955366E0,-1.797621536E1
3.871860417E0,1.024510193E1,-2.502017260E0,-1.814142036E1
3.873861717E0,1.005356026E1,-2.925803900E0,-1.828747177E1
3.875863083E0,9.981731415E0,-3.153259993E0,-1.822282600E1
3.877864416E0,9.751881599E0,-3.395081758E0,-1.775115395E1
3.879865749E0,9.529213905E0,-3.478881359E0,-1.703047752E1
3.881873682E0,9.268238068E0,-3.399870157E0,-1.617093277E1
3.883875015E0,9.146129608E0,-3.318464994E0,-1.573038578E1
3.885876348E0,8.945011139E0,-3.198751211E0,-1.479661846E1
3.887877681E0,8.834874153E0,-3.160442829E0,-1.431536865E1
3.889879014E0,8.660092354E0,-3.093403101E0,-1.340315056E1
3.891880347E0,8.571503639E0,-3.186779737E0,-1.256515408E1
3.893881947E0,8.624177933E0,-3.280156374E0,-1.215094471E1
3.895883280E0,8.842057228E0,-3.474092722E0,-1.142547894E1
3.897884646E0,8.952193260E0,-3.560286522E0,-1.114534950E1
3.899885979E0,9.172467232E0,-3.699154615E0,-1.065452290E1
3.901887312E0,9.318517685E0,-3.782954216E0,-1.035523891E1
3.903888678E0,9.428654671E0,-3.818868399E0,-1.022834206E1
3.905890011E0,9.677659035E0,-3.794925690E0,-1.011820507E1
3.907891344E0,1.000088596E1,-3.759011507E0,-1.007271385E1
3.909892710E0,1.014693642E1,-3.749434233E0,-1.005356026E1
3.911894043E0,1.032650757E1,-3.677606106E0,-1.003201103E1
3.913895376E0,1.041030693E1,-3.591412306E0,-1.004158878E1
3.915896742E0,1.044622135E1,-3.608172178E0,-9.981731415E0
3.917898075E0,1.053002071E1,-3.634509087E0,-9.926663399E0
3.919899408E0,1.053002071E1,-3.577046633E0,-9.902720451E0
3.921900774E0,1.049889469E1,-3.531555414E0,-9.878777504E0
3.923901774E0,1.040791225E1,-3.536343813E0,-9.648927689E0
3.925903274E0,1.027143860E1,-3.567469358E0,-9.464568138E0
3.927904640E0,1.001046276E1,-3.567469358E0,-9.055147171E0
3.931900206E0,9.768641472E0,-3.577046633E0,-8.839662552E0
3.933901606E0,9.445414543E0,-3.593806505E0,-8.387145042E0
3.935902939E0,9.198803902E0,-3.500429869E0,-8.154899597E0
3.937904272E0,9.150918007E0,-3.442967176E0,-8.181237221E0
3.939905638E0,9.186832428E0,-3.363956213E0,-8.150111198E0
3.943902437E0,9.589070320E0,-3.134105682E0,-8.233911514E0
3.945903803E0,9.967366219E0,-2.959323645E0,-8.377567291E0
3.947905136E0,1.018045616E1,-2.853975534E0,-8.490098000E0
3.949906469E0,1.059706020E1,-2.612153769E0,-8.794171333E0
3.951907835E0,1.095620155E1,-2.387091875E0,-9.076695442E0
3.953908901E0,1.100887585E1,-2.276955366E0,-9.131764412E0
3.955910234E0,1.102084732E1,-2.068653345E0,-9.076695442E0
3.957911567E0,1.108070374E1,-1.932179809E0,-9.134158134E0
3.959912900E0,1.113577175E1,-1.865140080E0,-9.258660316E0
3.961914233E0,1.120281219E1,-1.798100352E0,-9.352037430E0
3.963915566E0,1.122914886E1,-1.750214934E0,-9.246688843E0
3.965916899E0,1.126027489E1,-1.714300752E0,-9.162889481E0
3.967918265E0,1.120041752E1,-1.644866824E0,-8.935433388E0
3.969919598E0,1.108549213E1,-1.539518714E0,-8.755863190E0
3.971920931E0,1.067846584E1,-1.403045058E0,-8.339259148E0
3.973922297E0,1.005356026E1,-1.127703428E0,-7.685622215E0
3.975923630E0,9.694418907E0,-9.744698405E-1,-7.257047176E0
3.977924963E0,9.067118645E0,-6.584255695E-1,-6.395108223E0
3.979926329E0,8.554743767E0,-2.921015322E-1,-5.619362831E0
3.981927662E0,8.353624344E0,-7.901106775E-2,-5.341627121E0
3.983929328E0,8.073494911E0,3.375927508E-1,-4.958543301E0
3.985930528E0,7.723930359E0,6.368771195E-1,-4.336031914E0
3.987931861E0,7.551542759E0,8.068706393E-1,-3.991255999E0
3.989933194E0,7.192401409E0,1.120520592E0,-3.251425266E0
3.991934894E0,6.936213970E0,1.450930476E0,-2.758204460E0
3.993936227E0,6.871568680E0,1.589798450E0,-2.698347807E0
3.995937560E0,6.737489223E0,1.817254543E0,-2.528354168E0
3.997938660E0,6.569890022E0,1.939362645E0,-2.382303476E0
3.999939993E0,6.498061657E0,1.972882390E0,-2.322446585E0
4.001941326E0,6.304125786E0,1.980065227E0,-2.355966330E0
4.003949192E0,6.174834728E0,1.889082789E0,-2.456526041E0
4.005950525E0,6.098217964E0,1.826831698E0,-2.602576733E0
4.007951858E0,5.956955910E0,1.613741279E0,-2.734261751E0
4.009953224E0,5.880339146E0,1.460507631E0,-2.818061352E0
4.011959724E0,5.743865490E0,1.170800328E0,-3.040729046E0
4.013961057E0,5.664854050E0,8.763045669E-1,-3.414235830E0
4.015962423E0,5.624151707E0,7.350423932E-1,-3.586623669E0
4.017963756E0,5.619362831E0,4.166038036E-1,-3.933793545E0
4.019964756E0,5.621757030E0,2.681587934E-1,-4.087027073E0
4.021966122E0,5.633728504E0,1.675992459E-2,-4.237866402E0
4.023967455E0,5.633728504E0,-2.513988614E-1,-4.307300568E0
4.025968788E0,5.636122704E0,-3.974496126E-1,-4.348002911E0
4.027970121E0,5.607391834E0,-7.015225291E-1,-4.400677204E0
4.029971454E0,5.533169270E0,-9.960182905E-1,-4.446168423E0
4.031972787E0,5.514014721E0,-1.151646137E0,-4.403071404E0
4.033976520E0,5.384724140E0,-1.412622094E0,-4.249837875E0
4.035977853E0,5.212336063E0,-1.649655342E0,-4.008016109E0
4.037979219E0,5.145296574E0,-1.735849261E0,-3.873936653E0
4.039980552E0,4.927417755E0,-1.917814136E0,-3.589017868E0
4.041981885E0,4.520390987E0,-2.073441982E0,-3.361561775E0
4.043983251E0,4.324060440E0,-2.157241583E0,-3.256213665E0
4.045984584E0,3.976890564E0,-2.229069948E0,-2.935380936E0
4.047985917E0,3.756617069E0,-2.233858347E0,-2.767781734E0
4.049987283E0,3.308887720E0,-2.243435383E0,-2.466103077E0
4.051988616E0,2.717501879E0,-2.209915638E0,-2.221887112E0
4.053989949E0,2.430188894E0,-2.188367128E0,-2.106961727E0
4.055991315E0,1.843591571E0,-2.087807655E0,-1.903448462E0
4.057992915E0,1.297696948E0,-1.932179809E0,-1.733454943E0
4.059994248E0,1.003201127E0,-1.867534399E0,-1.659232497E0
4.061995614E0,4.070267081E-1,-1.738243461E0,-1.527547359E0
4.065991080E0,-4.357580245E-1,-1.410227895E0,-1.431776285E0
4.067992446E0,-9.026415944E-1,-1.173194647E0,-1.374313712E0
4.069993779E0,-1.070240855E0,-1.048692346E0,-1.321639657E0
4.073991311E0,-1.561067224E0,-5.219519138E-1,-1.015172482E0
4.075992644E0,-1.644866824E0,-4.046324492E-1,-9.002473354E-1
4.077994677E0,-1.762186289E0,-1.316851079E-1,-6.871568561E-1
4.079996377E0,-1.901054144E0,1.316851079E-1,-5.315290093E-1
4.081997710E0,-1.941756845E0,2.466102988E-1,-4.285751879E-1
4.083999043E0,-1.996825218E0,5.004034638E-1,-2.897072434E-1
4.086000409E0,-1.965699673E0,7.087053657E-1,-2.681587934E-1
4.088001742E0,-1.881899953E0,7.637736797E-1,-2.968900800E-1
4.090003075E0,-1.630501151E0,8.451790214E-1,-3.902668059E-1
4.092004441E0,-1.218685865E0,8.643332124E-1,-4.764606953E-1
4.096004707E0,-4.046324492E-1,7.781392932E-1,-8.715160489E-1
4.098006040E0,-6.943397224E-2,7.637736797E-1,-9.529213905E-1
4.100007373E0,6.464542150E-1,6.536370516E-1,-1.137280583E0
4.102008706E0,1.400650740E0,5.243461728E-1,-1.355159521E0
4.104010039E0,1.798100352E0,4.668835998E-1,-1.470084786E0
4.106011372E0,2.693559170E0,3.136500120E-1,-1.755003452E0
4.108012738E0,3.651269197E0,1.652049571E-1,-2.176395893E0
4.110014071E0,4.194769382E0,1.101366431E-1,-2.396669149E0
4.112015404E0,5.360781193E0,-7.182824425E-3,-2.834821463E0
4.114016770E0,6.577073097E0,-2.873129770E-2,-3.308887720E0
4.116018103E0,7.168458939E0,4.549122229E-2,-3.591412306E0
4.118019436E0,8.341653824E0,2.154847383E-1,-4.043930054E0
4.120020802E0,8.923461914E0,2.705530524E-1,-4.278569221E0
4.122022135E0,1.059706020E1,4.549122155E-1,-5.011217117E0
4.124023468E0,1.111661816E1,5.219519138E-1,-5.248250484E0
4.126024834E0,1.168884945E1,5.506832004E-1,-5.473312378E0
4.128026167E0,1.261782837E1,5.219519138E-1,-5.973715782E0
4.130031100E0,1.333132172E1,4.189980924E-1,-6.469330311E0
4.132032466E0,1.361384678E1,3.806896806E-1,-6.718335152E0
4.134033799E0,1.392989063E1,1.604164094E-1,-7.223526955E0
4.136035132E0,1.393228531E1,-1.795706153E-1,-7.743084908E0
4.138036498E0,1.398256493E1,-4.094209969E-1,-7.989695072E0
4.140037531E0,1.402326775E1,-9.002473354E-1,-8.588263512E0
4.142038864E0,1.394186211E1,-1.357553840E0,-8.885153770E0
4.144040230E0,1.362821198E1,-1.611346960E0,-9.368797302E0
4.146041563E0,1.299612331E1,-2.027950764E0,-9.976943016E0
4.148042896E0,1.269923401E1,-2.315263748E0,-1.023073673E1
4.150044262E0,1.231854343E1,-2.813272953E0,-1.077902508E1
4.152045595E0,1.177025509E1,-3.239453793E0,-1.109506989E1
4.154046928E0,1.146618176E1,-3.414235830E0,-1.123872566E1
4.156048294E0,1.120520592E1,-3.826051235E0,-1.159786701E1
4.158049627E0,1.105436707E1,-4.173221111E0,-1.195461369E1
4.160050960E0,1.116689777E1,-4.309694767E0,-1.213179016E1
4.162052326E0,1.111422348E1,-4.496448040E0,-1.236642933E1
4.164053659E0,1.113816643E1,-4.711932659E0,-1.219883060E1
4.166054992E0,1.127703476E1,-4.795732498E0,-1.227544689E1
4.168056325E0,1.138238239E1,-4.936994553E0,-1.233290958E1
4.170057658E0,1.143505669E1,-4.963331699E0,-1.237840080E1
4.172058991E0,1.117886925E1,-4.936994553E0,-1.236164093E1
4.174060324E0,1.128661156E1,-4.953754425E0,-1.255318260E1
4.176061657E0,1.125309181E1,-4.939388752E0,-1.254599953E1
4.178063023E0,1.133210278E1,-4.862771988E0,-1.239276600E1
4.180064356E0,1.127464008E1,-4.604190350E0,-1.209827042E1
4.182065689E0,1.098014450E1,-4.314483166E0,-1.165772438E1
4.184067055E0,1.084606457E1,-4.144489765E0,-1.143266201E1
4.186068388E0,1.073592854E1,-3.761405706E0,-1.094662476E1
4.188069721E0,1.072874546E1,-3.581835032E0,-1.065931129E1
4.192068820E0,1.092507553E1,-2.865947008E0,-9.344854355E0
4.194070153E0,1.101845264E1,-2.303292274E0,-8.540378571E0
4.196071519E0,1.102084732E1,-1.834014535E0,-7.807730198E0
4.198072152E0,1.101366425E1,-1.637683988E0,-7.465348721E0
4.200073785E0,1.107112694E1,-1.367130876E0,-6.818894863E0
4.202075151E0,1.120281219E1,-1.161223292E0,-6.390319347E0
4.204076484E0,1.128900528E1,-1.089395046E0,-6.203566074E0
4.206077817E0,1.158110714E1,-9.648927450E-1,-5.834847927E0
4.208079183E0,1.182053471E1,-8.164477348E-1,-5.537957668E0
4.210080516E0,1.195461369E1,-7.565908432E-1,-5.418243885E0
4.212081849E0,1.217009926E1,-6.081457734E-1,-5.147690773E0
4.214083215E0,1.245501709E1,-6.296942830E-1,-5.013611317E0
4.216084548E0,1.266571331E1,-7.494080067E-1,-4.699961662E0
4.218085881E0,1.317090607E1,-1.185166001E0,-4.450956821E0
4.220088014E0,1.338878441E1,-1.400650740E0,-4.345608711E0
4.222089347E0,1.363539505E1,-1.862745762E0,-4.137306690E0
4.224090680E0,1.376229191E1,-2.332023621E0,-3.914639235E0
4.226091713E0,1.375032043E1,-2.564268351E0,-3.895485163E0
4.228093746E0,1.369285774E1,-3.143682718E0,-3.979284763E0
4.230095079E0,1.351807594E1,-3.773377180E0,-4.343214512E0
4.232096445E0,1.348934460E1,-4.106181145E0,-4.668835640E0
4.234097778E0,1.354680729E1,-4.757423878E0,-5.571477413E0
4.236099111E0,1.356117249E1,-5.468523502E0,-6.500456333E0
4.238100444E0,1.349413300E1,-5.803721905E0,-7.027196407E0
4.240101777E0,1.327385998E1,-6.505244732E0,-8.008849144E0
4.242103110E0,1.300809479E1,-6.897905827E0,-8.918673515E0
4.244104443E0,1.281655312E1,-6.986494064E0,-9.608224869E0
4.246105776E0,1.216770458E1,-7.125361919E0,-1.116689777E1
