"Time (s)","Gyroscope x (rad/s)","Gyroscope y (rad/s)","Gyroscope z (rad/s)"
2.586261640E-1,2.385062277E-1,-2.915433645E-1,-5.028276145E-2
2.606276640E-1,2.507235408E-1,-3.251409531E-1,-5.150449276E-2
2.626289970E-1,2.562213242E-1,-3.483538628E-1,-5.578054860E-2
2.646304970E-1,2.635516822E-1,-3.599602878E-1,-5.211535469E-2
2.666318970E-1,2.721038163E-1,-3.721775711E-1,-5.761314556E-2
2.686332300E-1,2.776015997E-1,-3.788971007E-1,-5.394795164E-2
2.706346580E-1,2.757690251E-1,-3.807297051E-1,-5.944573879E-2
2.726360330E-1,2.849319875E-1,-3.691232502E-1,-6.005660444E-2
2.746381440E-1,2.867645919E-1,-3.587385416E-1,-6.005660444E-2
2.766395440E-1,2.849319875E-1,-3.452995420E-1,-6.005660444E-2
2.786409070E-1,2.769907117E-1,-3.159779906E-1,-6.433266401E-2
2.806422400E-1,2.776015997E-1,-2.994846106E-1,-6.494352967E-2
2.826436240E-1,2.617191076E-1,-2.628327012E-1,-6.494352967E-2
2.846449810E-1,2.507235408E-1,-2.157960832E-1,-6.983045489E-2
2.866457140E-1,2.440040112E-1,-1.968592703E-1,-7.166304439E-2
2.886470890E-1,2.250671834E-1,-1.498226523E-1,-7.777170092E-2
2.906484410E-1,2.116281539E-1,-9.789909422E-2,-8.204775304E-2
2.926498290E-1,2.036869079E-1,-8.079487085E-2,-8.388034999E-2
2.946511970E-1,1.920804679E-1,-4.841900989E-2,-8.388034999E-2
2.966525470E-1,1.884152889E-1,-2.826045826E-2,-8.571294695E-2
2.986539270E-1,1.798631549E-1,-2.520613372E-2,-8.082602918E-2
3.006552900E-1,1.749762446E-1,-3.253651410E-2,-8.388034999E-2
3.026566370E-1,1.682567298E-1,-3.742343932E-2,-8.326948434E-2
3.046579700E-1,1.639806628E-1,-5.391679704E-2,-8.143688738E-2
3.066593300E-1,1.590937525E-1,-6.491237879E-2,-8.449121565E-2
3.086606760E-1,1.548176855E-1,-6.613410264E-2,-8.510208130E-2
3.106620460E-1,1.511524916E-1,-7.774055004E-2,-8.388034999E-2
3.126634030E-1,1.548176855E-1,-8.995784819E-2,-7.838255912E-2
3.146647470E-1,1.578720063E-1,-9.117957950E-2,-7.838255912E-2
3.166661130E-1,1.627589464E-1,-8.751438558E-2,-7.716083527E-2
3.186674460E-1,1.694784611E-1,-9.117957950E-2,-7.227391005E-2
3.206687790E-1,1.713110507E-1,-8.446005732E-2,-7.349564135E-2
3.226701450E-1,1.823066324E-1,-8.568179607E-2,-7.593910396E-2
3.246714780E-1,1.853609532E-1,-9.056871384E-2,-8.204775304E-2
3.266728110E-1,1.975782663E-1,-9.484477341E-2,-8.693467826E-2
3.286741770E-1,2.104064226E-1,-1.168359220E-1,-8.693467826E-2
3.306751770E-1,2.201802731E-1,-1.259988993E-1,-8.510208130E-2
3.326765100E-1,2.421714216E-1,-1.553204358E-1,-8.143688738E-2
3.346776430E-1,2.708820701E-1,-1.907506138E-1,-8.571294695E-2
3.366789760E-1,2.855428457E-1,-2.157960832E-1,-8.510208130E-2
3.386803090E-1,3.142535090E-1,-2.701630890E-1,-8.876727521E-2
3.406816750E-1,3.460185230E-1,-3.306387663E-1,-9.304332733E-2
3.426830080E-1,3.612901270E-1,-3.507972956E-1,-9.304332733E-2
3.446843410E-1,3.820595741E-1,-4.027208686E-1,-9.487592429E-2
3.466860070E-1,4.028289914E-1,-4.436488450E-1,-9.609765559E-2
3.486873400E-1,4.144354165E-1,-4.674725533E-1,-9.487592429E-2
3.506886730E-1,4.248201251E-1,-4.980158508E-1,-9.609765559E-2
3.526900060E-1,4.315396547E-1,-5.138983130E-1,-9.304332733E-2
3.546913390E-1,4.358156919E-1,-5.334460735E-1,-9.182160348E-2
3.566926720E-1,4.437569678E-1,-5.456633568E-1,-9.426505864E-2
3.586940050E-1,4.425352216E-1,-5.444415808E-1,-9.670852125E-2
3.606967710E-1,4.431460798E-1,-5.407764316E-1,-9.487592429E-2
3.626981370E-1,4.376482964E-1,-5.310025811E-1,-1.003737077E-1
3.646995030E-1,4.425352216E-1,-5.212286711E-1,-9.731938690E-2
3.667008360E-1,4.376482964E-1,-5.010701418E-1,-1.070932299E-1
3.687022690E-1,4.278744459E-1,-4.796898663E-1,-1.156453416E-1
3.707036020E-1,4.284853339E-1,-4.754138291E-1,-1.211431250E-1
3.727049350E-1,4.297070503E-1,-4.497574866E-1,-1.278626472E-1
3.747063010E-1,4.284853339E-1,-4.241011441E-1,-1.309169829E-1
3.767076340E-1,4.278744459E-1,-4.131055474E-1,-1.388582140E-1
3.787089670E-1,4.211549461E-1,-3.880600929E-1,-1.455777436E-1
3.807100000E-1,4.260418713E-1,-3.770645261E-1,-1.449668705E-1
3.827113330E-1,4.303179085E-1,-3.544625044E-1,-1.455777436E-1
3.847126660E-1,4.248201251E-1,-3.306387663E-1,-1.510755271E-1
3.867140320E-1,4.229875207E-1,-3.208648860E-1,-1.522972584E-1
3.887153650E-1,4.223766923E-1,-2.976520360E-1,-1.620711088E-1
3.907170310E-1,4.229875207E-1,-2.762717605E-1,-1.669580191E-1
3.927183970E-1,4.242092669E-1,-2.683305144E-1,-1.706232131E-1
3.947197300E-1,4.272635877E-1,-2.536697388E-1,-1.767318696E-1
3.967210630E-1,4.284853339E-1,-2.353437841E-1,-1.883383095E-1
3.987231290E-1,4.284853339E-1,-2.298459858E-1,-1.865057051E-1
4.007244620E-1,4.376482964E-1,-2.231264710E-1,-1.981121451E-1
4.027257950E-1,4.407026470E-1,-2.206830084E-1,-2.017773390E-1
4.047271610E-1,4.480330348E-1,-2.225156128E-1,-2.054425329E-1
4.067284940E-1,4.596394300E-1,-2.261808068E-1,-2.164381146E-1
4.087305270E-1,4.639154971E-1,-2.304568440E-1,-2.170489877E-1
4.107318930E-1,4.828523397E-1,-2.371763736E-1,-2.194924355E-1
4.127332260E-1,4.901826978E-1,-2.530588806E-1,-2.243793607E-1
4.147345590E-1,4.944587648E-1,-2.573349178E-1,-2.256010920E-1
4.167359250E-1,4.956804812E-1,-2.622218728E-1,-2.268228084E-1
4.187372580E-1,5.011782646E-1,-2.671087682E-1,-2.353749275E-1
4.227391910E-1,4.932370186E-1,-2.793260813E-1,-2.445379049E-1
4.247405240E-1,4.926261604E-1,-2.823804021E-1,-2.457596362E-1
4.267418570E-1,4.926261604E-1,-2.750500143E-1,-2.500357032E-1
4.287431230E-1,4.816305935E-1,-2.774934769E-1,-2.549226284E-1
4.307444560E-1,4.736893177E-1,-2.738282681E-1,-2.616421580E-1
4.327458220E-1,4.602503181E-1,-2.713848352E-1,-2.683616579E-1
4.347471550E-1,4.492547214E-1,-2.658870220E-1,-2.830224335E-1
4.367484880E-1,4.413134754E-1,-2.616109848E-1,-2.830224335E-1
4.387498540E-1,4.266526997E-1,-2.457284778E-1,-2.921853960E-1
4.407515200E-1,4.174897373E-1,-2.420632988E-1,-2.940180004E-1
4.427528530E-1,4.126028121E-1,-2.371763736E-1,-2.964614630E-1
4.447542190E-1,4.046615660E-1,-2.322894484E-1,-3.031809628E-1
4.467555520E-1,3.985529244E-1,-2.249590605E-1,-3.086787760E-1
4.487568850E-1,3.936659992E-1,-2.231264710E-1,-3.117330968E-1
4.507582510E-1,3.954986036E-1,-2.329003215E-1,-3.208960593E-1
4.527595840E-1,3.900007904E-1,-2.390089780E-1,-3.208960593E-1
4.547609170E-1,3.942768574E-1,-2.487828135E-1,-3.276155591E-1
4.567622830E-1,4.009963572E-1,-2.579458058E-1,-3.312807679E-1
4.587625830E-1,4.040507078E-1,-2.579458058E-1,-3.337242305E-1
4.607639160E-1,4.144354165E-1,-2.610001266E-1,-3.386111557E-1
4.627652820E-1,4.223766923E-1,-2.701630890E-1,-3.331133723E-1
4.647666150E-1,4.284853339E-1,-2.829912603E-1,-3.318916261E-1
4.667679480E-1,4.278744459E-1,-3.110910654E-1,-3.367785513E-1
4.687686140E-1,4.370374382E-1,-3.294170201E-1,-3.434980810E-1
4.707699470E-1,4.376482964E-1,-3.465212286E-1,-3.404437602E-1
4.727712800E-1,4.504764676E-1,-3.666798174E-1,-3.453306854E-1
4.747726460E-1,4.516982138E-1,-3.862274885E-1,-3.441089392E-1
4.767739790E-1,4.602503181E-1,-4.014991224E-1,-3.441089392E-1
4.787753120E-1,4.700241387E-1,-4.326532483E-1,-3.398328722E-1
4.807766780E-1,4.743002057E-1,-4.503683448E-1,-3.349459469E-1
4.827773110E-1,4.828523397E-1,-4.784681499E-1,-3.294481933E-1
4.847786440E-1,4.877392650E-1,-5.157309175E-1,-3.227286637E-1
4.867800100E-1,4.883500934E-1,-5.346677303E-1,-3.221178055E-1
4.887813430E-1,5.048434734E-1,-5.810934901E-1,-3.153982759E-1
4.907826760E-1,5.176716447E-1,-6.299626827E-1,-3.025701046E-1
4.927840090E-1,5.195041895E-1,-6.550081968E-1,-2.995157838E-1
4.947853420E-1,5.250020027E-1,-6.953253150E-1,-2.964614630E-1
4.967866750E-1,5.256128907E-1,-7.331990004E-1,-2.927962542E-1
4.987880080E-1,5.231694579E-1,-7.460271120E-1,-2.891310751E-1
5.007893410E-1,5.243911743E-1,-7.649639249E-1,-2.836332619E-1
5.027907070E-1,5.201151371E-1,-7.802355886E-1,-2.830224335E-1
5.047920400E-1,5.146173239E-1,-7.918420434E-1,-2.793572247E-1
5.067933730E-1,4.950696528E-1,-8.028376102E-1,-2.720268667E-1
5.087947390E-1,4.950696528E-1,-8.065028191E-1,-2.689725459E-1
5.107960720E-1,4.840740561E-1,-8.089462519E-1,-2.714159787E-1
5.127974050E-1,4.700241387E-1,-8.083353639E-1,-2.726377249E-1
5.147987710E-1,4.651372433E-1,-8.095571399E-1,-2.738594413E-1
5.168001040E-1,4.474221468E-1,-8.107787967E-1,-2.750811875E-1
5.188055370E-1,4.345939755E-1,-8.095571399E-1,-2.793572247E-1
5.208069030E-1,4.309287667E-1,-8.107787967E-1,-2.818006873E-1
5.228082360E-1,4.229875207E-1,-8.126114607E-1,-2.824115455E-1
5.248095690E-1,4.138245583E-1,-8.077244759E-1,-2.885202169E-1
5.268109350E-1,4.101593494E-1,-8.199418187E-1,-2.915745378E-1
5.288122680E-1,3.979420364E-1,-8.156657815E-1,-3.037918508E-1
5.308136010E-1,4.009963572E-1,-8.144440055E-1,-3.068461716E-1
5.328149670E-1,3.967203498E-1,-8.168874979E-1,-3.147874177E-1
5.348163000E-1,3.936659992E-1,-8.156657815E-1,-3.221178055E-1
5.368176330E-1,3.954986036E-1,-8.168874979E-1,-3.306699097E-1
5.388189990E-1,3.881682158E-1,-8.052810431E-1,-3.270047307E-1
5.408203320E-1,3.906116784E-1,-8.077244759E-1,-3.257829845E-1
5.428216650E-1,3.942768574E-1,-8.058919311E-1,-3.239503801E-1
5.448226980E-1,4.009963572E-1,-8.168874979E-1,-3.178417385E-1
5.468240310E-1,4.089376330E-1,-8.229961395E-1,-3.099004924E-1
5.488253640E-1,4.174897373E-1,-8.229961395E-1,-3.099004924E-1
5.508267300E-1,4.327613711E-1,-8.272722363E-1,-3.080678880E-1
5.528280630E-1,4.400917590E-1,-8.346025944E-1,-3.025701046E-1
5.548293960E-1,4.516982138E-1,-8.523176908E-1,-2.952397168E-1
5.568304620E-1,4.651372433E-1,-8.743088245E-1,-2.872984707E-1
5.588317950E-1,4.736893177E-1,-8.865261078E-1,-2.836332619E-1
5.608331280E-1,4.822414517E-1,-9.140150547E-1,-2.799681127E-1
5.628344610E-1,4.926261604E-1,-9.329519272E-1,-2.756920457E-1
5.648357940E-1,4.962913394E-1,-9.433366060E-1,-2.695833743E-1
5.668371270E-1,5.072869062E-1,-9.586082101E-1,-2.573660910E-1
5.688384600E-1,5.219476819E-1,-9.732689857E-1,-2.384292632E-1
5.708397930E-1,5.317215323E-1,-9.738798738E-1,-2.219358981E-1
5.728411590E-1,5.555452704E-1,-9.720472693E-1,-1.950578243E-1
5.748424920E-1,5.640974045E-1,-9.854863286E-1,-1.907817721E-1
5.768438250E-1,5.628756881E-1,-1.007477403E0,-1.968904287E-1
5.808424240E-1,5.537127256E-1,-1.048405409E0,-2.109403163E-1
5.828437570E-1,5.402736664E-1,-1.063066125E0,-2.152163833E-1
5.848451230E-1,5.311106443E-1,-1.085057378E0,-2.121620476E-1
5.868464560E-1,5.201151371E-1,-1.091776848E0,-2.158272415E-1
5.888477890E-1,5.024000406E-1,-1.099718094E0,-2.152163833E-1
5.908515890E-1,4.804088771E-1,-1.114378929E0,-2.194924355E-1
5.928529220E-1,4.651372433E-1,-1.116822243E0,-2.176598310E-1
5.948542550E-1,4.345939755E-1,-1.124763608E0,-2.256010920E-1
5.968556210E-1,4.168788791E-1,-1.131483078E0,-2.268228084E-1
5.988569540E-1,3.845030069E-1,-1.140035152E0,-2.341531962E-1
6.008582870E-1,3.496837020E-1,-1.140646100E0,-2.372075170E-1
6.028593530E-1,3.380772769E-1,-1.136980891E0,-2.384292632E-1
6.048610190E-1,3.032579422E-1,-1.122320056E0,-2.384292632E-1
6.068623520E-1,2.800450623E-1,-1.121709228E0,-2.329314798E-1
6.088637180E-1,2.684386373E-1,-1.110713601E0,-2.310988754E-1
6.108650510E-1,2.501126826E-1,-1.087500811E0,-2.268228084E-1
6.128663840E-1,2.366736233E-1,-1.064898849E0,-2.164381146E-1
6.148677500E-1,2.244563252E-1,-1.055735826E0,-2.121620476E-1
6.168693830E-1,2.201802731E-1,-1.039853215E0,-2.066642642E-1
6.188707160E-1,2.030760348E-1,-1.012364388E0,-1.987230182E-1
6.208720820E-1,1.969673932E-1,-1.000757933E0,-1.938360929E-1
6.228734150E-1,2.018543035E-1,-9.805993438E-1,-1.852839887E-1
6.248747480E-1,2.018543035E-1,-9.708255529E-1,-1.791753173E-1
6.268761140E-1,1.987999827E-1,-9.647168517E-1,-1.712340862E-1
6.288774470E-1,1.926913261E-1,-9.488344193E-1,-1.657363027E-1
6.308787800E-1,1.987999827E-1,-9.470017552E-1,-1.608493626E-1
6.328798130E-1,2.024651766E-1,-9.433366060E-1,-1.559624523E-1
6.348811460E-1,1.987999827E-1,-9.329519272E-1,-1.498537958E-1
6.368824790E-1,1.981891245E-1,-9.243997931E-1,-1.425234079E-1
6.388838450E-1,1.939130723E-1,-9.109607339E-1,-1.425234079E-1
6.408851780E-1,1.871935427E-1,-9.048520923E-1,-1.364147663E-1
6.428865440E-1,1.896370053E-1,-9.030194879E-1,-1.333604306E-1
6.448937100E-1,1.871935427E-1,-9.011868834E-1,-1.248083189E-1
6.468952430E-1,1.878044158E-1,-9.036303759E-1,-1.241974533E-1
6.488966090E-1,1.933021992E-1,-9.134041667E-1,-1.174779385E-1
6.528968420E-1,2.018543035E-1,-9.292866588E-1,-1.028171703E-1
6.548982080E-1,2.085738182E-1,-9.421148896E-1,-9.548678994E-2
6.568995410E-1,2.159042060E-1,-9.549430609E-1,-8.815640956E-2
6.589008740E-1,2.152933478E-1,-9.622734189E-1,-8.815640956E-2
6.609022400E-1,2.220128626E-1,-9.769341946E-1,-8.388034999E-2
6.629038730E-1,2.268997729E-1,-1.003201365E0,-7.349564135E-2
6.649052060E-1,2.317867130E-1,-1.019083858E0,-7.166304439E-2
6.669064060E-1,2.397279441E-1,-1.047794580E0,-6.860871613E-2
6.689077390E-1,2.397279441E-1,-1.060011864E0,-6.311093271E-2
6.709090720E-1,2.427822948E-1,-1.067342281E0,-5.822401121E-2
6.729104380E-1,2.446148843E-1,-1.088722587E0,-5.883487687E-2
6.749117710E-1,2.415605485E-1,-1.092387676E0,-5.455881730E-2
6.769131040E-1,2.317867130E-1,-1.103994131E0,-5.028276145E-2
6.789144700E-1,2.317867130E-1,-1.101550698E0,-4.356324300E-2
6.809158030E-1,2.311758399E-1,-1.102161527E0,-4.050891846E-2
6.829171360E-1,2.452257425E-1,-1.091776848E0,-2.645901591E-2
6.849185020E-1,2.580539286E-1,-1.070396662E0,-2.635272685E-3
6.869204020E-1,2.629408240E-1,-1.075283408E0,3.473379882E-3
6.889217350E-1,2.635516822E-1,-1.100939870E0,8.360302076E-3
6.909231010E-1,2.641625702E-1,-1.129039645E0,1.141462848E-2
6.929247340E-1,2.617191076E-1,-1.143089533E0,1.141462848E-2
6.949260670E-1,2.641625702E-1,-1.171800137E0,2.241020277E-2
6.969274330E-1,2.574430406E-1,-1.179130673E0,2.118847333E-2
6.989290660E-1,2.543887198E-1,-1.188904405E0,2.974058501E-2
7.009303990E-1,2.495017946E-1,-1.193180561E0,4.745567590E-2
7.029317320E-1,2.385062277E-1,-1.193791389E0,5.234259740E-2
7.069283650E-1,1.884152889E-1,-1.169967651E0,7.127942145E-2
7.089296980E-1,1.719219238E-1,-1.165691495E0,6.700336188E-2
7.109310310E-1,1.505416334E-1,-1.166913271E0,7.005769014E-2
7.129323970E-1,1.303830743E-1,-1.175465345E0,7.616634667E-2
7.149337300E-1,1.236635596E-1,-1.179130673E0,7.555548102E-2
7.169350630E-1,1.041158736E-1,-1.184017420E0,8.105327189E-2
7.189364290E-1,9.250943363E-2,-1.178519726E0,7.983153313E-2
7.209382620E-1,7.357260585E-2,-1.180352330E0,8.105327189E-2
7.229395950E-1,4.974886775E-2,-1.174854517E0,7.860980183E-2
7.249409610E-1,3.081204183E-2,-1.174854517E0,7.799893618E-2
7.269424610E-1,-4.618141335E-3,-1.179741502E0,7.738807797E-2
7.289437940E-1,-3.943746164E-2,-1.188293576E0,8.532932401E-2
7.309451600E-1,-5.837428197E-2,-1.195013046E0,8.838365227E-2
7.329464930E-1,-9.563706070E-2,-1.196845651E0,8.655105531E-2
7.349478260E-1,-1.377867609E-1,-1.198678255E0,8.227499574E-2
7.369546590E-1,-1.530583948E-1,-1.194402218E0,7.922067493E-2
7.389559920E-1,-1.854342520E-1,-1.188293576E0,7.677720487E-2
7.409573250E-1,-2.104797363E-1,-1.185239315E0,7.799893618E-2
7.429583580E-1,-2.226970345E-1,-1.187071800E0,7.983153313E-2
7.449596910E-1,-2.404121310E-1,-1.187682748E0,8.166413009E-2
7.469601240E-1,-2.410229892E-1,-1.196845651E0,8.471845835E-2
7.489611900E-1,-2.434664518E-1,-1.200510859E0,8.227499574E-2
7.509630900E-1,-2.434664518E-1,-1.201732516E0,7.738807797E-2
7.529644230E-1,-2.416338474E-1,-1.204786897E0,7.677720487E-2
7.549654890E-1,-2.391903996E-1,-1.215171576E0,7.250115275E-2
7.569668220E-1,-2.281948179E-1,-1.227999806E0,7.250115275E-2
7.589678550E-1,-2.220861614E-1,-1.231665015E0,7.311201841E-2
7.609692210E-1,-2.098688632E-1,-1.235330224E0,6.822510064E-2
7.629705540E-1,-1.945972294E-1,-1.245714903E0,7.066855580E-2
7.649718870E-1,-1.866559833E-1,-1.253045321E0,6.944682449E-2
7.669736200E-1,-1.701626331E-1,-1.268316865E0,7.189028710E-2
7.689749530E-1,-1.677191556E-1,-1.273203850E0,6.944682449E-2
7.709762860E-1,-1.481714845E-1,-1.292140603E0,7.494460791E-2
7.729776190E-1,-1.383976340E-1,-1.316575289E0,8.288586140E-2
7.749789520E-1,-1.310672462E-1,-1.327570796E0,8.777277917E-2
7.769802850E-1,-1.182390749E-1,-1.358724952E0,9.204884619E-2
7.789816180E-1,-9.930225462E-2,-1.396598577E0,1.036552787E-1
7.809824510E-1,-9.502620250E-2,-1.408205032E0,1.067096069E-1
7.829838170E-1,-8.097629249E-2,-1.435693979E0,1.152617186E-1
7.849851500E-1,-7.242418826E-2,-1.464404702E0,1.219812408E-1
7.869864830E-1,-6.936985999E-2,-1.476011157E0,1.268681586E-1
7.889875160E-1,-6.265033782E-2,-1.491282701E0,1.329768002E-1
7.909888490E-1,-5.715255439E-2,-1.513884783E0,1.415289342E-1
7.929901820E-1,-5.654168874E-2,-1.528545499E0,1.445832551E-1
7.949915480E-1,-5.837428197E-2,-1.549314976E0,1.519136280E-1
7.989887470E-1,-8.464148641E-2,-1.578025579E0,1.531353593E-1
8.009901130E-1,-9.258273244E-2,-1.600016713E0,1.525245011E-1
8.029917790E-1,-9.563706070E-2,-1.618953586E0,1.494701654E-1
8.049931120E-1,-1.005239859E-1,-1.650107622E0,1.488593072E-1
8.069948120E-1,-1.121304259E-1,-1.659881473E0,1.586331427E-1
8.089964450E-1,-1.231260002E-1,-1.659881473E0,1.568005532E-1
8.109972110E-1,-1.402302235E-1,-1.656827092E0,1.653526723E-1
8.129985770E-1,-1.634431034E-1,-1.644609809E0,1.665744036E-1
8.150002100E-1,-1.787147373E-1,-1.640333891E0,1.690178663E-1
8.170015430E-1,-2.117014676E-1,-1.628727436E0,1.690178663E-1
8.190030430E-1,-2.245296389E-1,-1.623229623E0,1.745156497E-1
8.210043760E-1,-2.532402873E-1,-1.609790564E0,1.720721871E-1
8.230064090E-1,-2.770640254E-1,-1.602460146E0,1.842894852E-1
8.250081090E-1,-2.880595922E-1,-1.606125355E0,1.830677688E-1
8.270090750E-1,-3.118833601E-1,-1.598795056E0,1.897872835E-1
8.290104080E-1,-3.357070982E-1,-1.606736183E0,1.891764104E-1
8.310117740E-1,-3.387614489E-1,-1.618342638E0,1.916198730E-1
8.330131070E-1,-3.509787321E-1,-1.647053361E0,1.928416044E-1
8.350144400E-1,-3.613634408E-1,-1.678207517E0,2.007828504E-1
8.370158060E-1,-3.638069034E-1,-1.698976874E0,2.020045817E-1
8.390171390E-1,-3.644177914E-1,-1.745402694E0,2.062806338E-1
8.410184720E-1,-3.528113365E-1,-1.802824020E0,2.111675590E-1
8.430198050E-1,-3.540330529E-1,-1.834589005E0,2.075023651E-1
8.450211380E-1,-3.442592025E-1,-1.878571272E0,1.989502609E-1
8.470224710E-1,-3.344853818E-1,-1.900562406E0,1.995611340E-1
8.490241370E-1,-3.228789270E-1,-1.931716561E0,1.946741939E-1
8.510254700E-1,-3.216572106E-1,-1.966535926E0,1.922307462E-1
8.530268360E-1,-3.106616139E-1,-1.975698829E0,1.928416044E-1
8.550281690E-1,-3.069964349E-1,-1.995857477E0,1.818460375E-1
8.570295020E-1,-3.131051064E-1,-2.010518074E0,1.732939184E-1
8.590308680E-1,-3.131051064E-1,-2.014183283E0,1.702395976E-1
8.610322010E-1,-3.100507557E-1,-2.015405178E0,1.665744036E-1
8.630335340E-1,-3.118833601E-1,-2.007463932E0,1.586331427E-1
8.650349000E-1,-3.069964349E-1,-2.006242037E0,1.598548889E-1
8.670362330E-1,-3.088290393E-1,-1.995857477E0,1.555788219E-1
8.690375660E-1,-3.094398975E-1,-1.999522567E0,1.506919116E-1
8.710385990E-1,-3.076072931E-1,-1.990970492E0,1.372528672E-1
8.730399320E-1,-3.076072931E-1,-1.989748836E0,1.268681586E-1
8.750412650E-1,-3.033312261E-1,-1.986694455E0,1.262573004E-1
8.770426310E-1,-3.033312261E-1,-1.993413925E0,1.268681586E-1
8.790442640E-1,-2.966117263E-1,-1.983640194E0,1.250355542E-1
8.810455970E-1,-2.947791517E-1,-1.983029246E0,1.317550838E-1
8.830462630E-1,-3.002769053E-1,-1.976920485E0,1.384745985E-1
8.850472630E-1,-3.002769053E-1,-1.972644567E0,1.421397924E-1
8.870485960E-1,-3.014986515E-1,-1.967757583E0,1.403071880E-1
8.890499620E-1,-3.039421141E-1,-1.962870717E0,1.458049715E-1
8.910512950E-1,-3.124942183E-1,-1.966535926E0,1.470267177E-1
8.930526280E-1,-3.167702854E-1,-1.974477172E0,1.445832551E-1
8.950539940E-1,-3.308202028E-1,-1.976920485E0,1.427506506E-1
8.970553270E-1,-3.393722773E-1,-1.984861851E0,1.439723819E-1
8.990566600E-1,-3.546439111E-1,-1.984251022E0,1.470267177E-1
9.010580260E-1,-3.717481494E-1,-1.976920485E0,1.568005532E-1
9.030593590E-1,-3.705264330E-1,-1.975088000E0,1.635200828E-1
9.050606920E-1,-3.815219998E-1,-1.967146754E0,1.714613140E-1
9.070620580E-1,-3.851872087E-1,-1.958594561E0,1.775699705E-1
9.090633910E-1,-3.894632459E-1,-1.954929471E0,1.836786419E-1
9.110647240E-1,-3.839654624E-1,-1.943933845E0,1.861220896E-1
9.130660570E-1,-3.735807538E-1,-1.939657807E0,1.928416044E-1
9.150673900E-1,-3.686938286E-1,-1.936603546E0,1.916198730E-1
9.170687900E-1,-3.399831653E-1,-1.943933845E0,1.983393878E-1
9.190701230E-1,-3.308202028E-1,-1.950042486E0,1.971176565E-1
9.210714560E-1,-3.057747185E-1,-1.963481545E0,1.897872835E-1
9.230728220E-1,-2.782857716E-1,-1.983029246E0,1.830677688E-1
9.250741550E-1,-2.685119212E-1,-1.995857477E0,1.836786419E-1
9.270754880E-1,-2.495751083E-1,-2.014183283E0,1.794025749E-1
9.290768540E-1,-2.336926162E-1,-2.028233290E0,1.794025749E-1
9.310785200E-1,-2.306382805E-1,-2.026400566E0,1.794025749E-1
9.330798530E-1,-2.233078927E-1,-2.011129141E0,1.769591123E-1
9.350812190E-1,-2.257513553E-1,-1.992803097E0,1.855112165E-1
9.370825520E-1,-2.312491387E-1,-1.983640194E0,1.952850670E-1
9.390837520E-1,-2.361360639E-1,-1.962870717E0,2.227739990E-1
9.410851180E-1,-2.422447205E-1,-1.942712188E0,2.380456328E-1
9.430864510E-1,-2.538511753E-1,-1.903616786E0,2.740866840E-1
9.450877840E-1,-2.636249959E-1,-1.866353989E0,2.918017805E-1
9.470888170E-1,-2.660684586E-1,-1.853525758E0,2.893583179E-1
9.490901500E-1,-2.599598169E-1,-1.826647758E0,2.808062136E-1
9.510921160E-1,-2.471316308E-1,-1.802213192E0,2.557607293E-1
9.530934820E-1,-2.428555936E-1,-1.792439342E0,2.490412146E-1
9.550948150E-1,-2.220861614E-1,-1.765561104E0,2.319369763E-1
9.570961480E-1,-2.092579901E-1,-1.727687597E0,2.166653425E-1
9.590975140E-1,-2.019276172E-1,-1.709361553E0,2.160544842E-1
9.610988470E-1,-1.897103190E-1,-1.665379286E0,2.050589174E-1
9.631001800E-1,-1.854342520E-1,-1.628116608E0,1.873438060E-1
9.651021460E-1,-1.817690581E-1,-1.607347131E0,1.812351644E-1
9.671034790E-1,-1.726060808E-1,-1.578025579E0,1.659635305E-1
9.691048120E-1,-1.677191556E-1,-1.560310602E0,1.574114263E-1
9.711061780E-1,-1.597779095E-1,-1.516328216E0,1.378637403E-1
9.731075110E-1,-1.616104990E-1,-1.475400209E0,1.225920990E-1
9.751088440E-1,-1.622213721E-1,-1.459517717E0,1.219812408E-1
9.771101440E-1,-1.530583948E-1,-1.443635225E0,1.122073904E-1
9.791113440E-1,-1.414519548E-1,-1.430196166E0,9.754662961E-2
9.811126770E-1,-1.383976340E-1,-1.425920129E0,9.327057004E-2
9.831140100E-1,-1.261803210E-1,-1.421033144E0,8.410759270E-2
9.851160430E-1,-1.109086946E-1,-1.406983256E0,8.838365227E-2
9.871173760E-1,-1.072435006E-1,-1.394155145E0,9.876835346E-2
9.891187090E-1,-9.746965766E-2,-1.365444422E0,1.201486439E-1
9.911200420E-1,-9.930225462E-2,-1.348340154E0,1.360311359E-1
9.931213750E-1,-1.041891798E-1,-1.309855700E0,1.482484490E-1
9.951227080E-1,-1.157956198E-1,-1.281755924E0,1.415289342E-1
9.971240410E-1,-1.182390749E-1,-1.264040947E0,1.372528672E-1
9.991254070E-1,-1.261803210E-1,-1.230443239E0,1.396963298E-1
1.001126740E0,-1.322889775E-1,-1.205397844E0,1.360311359E-1
1.003128073E0,-1.377867609E-1,-1.191958785E0,1.335876733E-1
1.005129439E0,-1.359541565E-1,-1.159582853E0,1.366419941E-1
1.007131105E0,-1.383976340E-1,-1.108881116E0,1.555788219E-1
1.009132438E0,-1.396193504E-1,-1.080170393E0,1.684069932E-1
1.011134271E0,-1.512258053E-1,-1.008088350E0,1.830677688E-1
1.013135604E0,-1.512258053E-1,-9.427257180E-1,1.873438060E-1
1.015136937E0,-1.573344618E-1,-9.115716219E-1,1.971176565E-1
1.017138303E0,-1.640539765E-1,-8.346025944E-1,2.026154548E-1
1.019139636E0,-1.695517600E-1,-8.016158342E-1,2.062806338E-1
1.021140969E0,-1.671082973E-1,-7.301446795E-1,2.068915069E-1
1.023142335E0,-1.658865660E-1,-6.641712189E-1,2.099458277E-1
1.025143068E0,-1.628322452E-1,-6.348496675E-1,2.087241113E-1
1.027144401E0,-1.475606114E-1,-5.817043185E-1,2.050589174E-1
1.029145767E0,-1.267911941E-1,-5.493285060E-1,1.946741939E-1
1.031147100E0,-1.133521572E-1,-5.395547152E-1,1.934524626E-1
1.033148433E0,-9.380446374E-2,-5.248939395E-1,1.928416044E-1
1.035149799E0,-6.448293477E-2,-5.102331042E-1,2.013937235E-1
1.037151132E0,-5.165476725E-2,-4.992375374E-1,1.995611340E-1
1.039152598E0,-2.233323269E-2,-5.035136342E-1,1.861220896E-1
1.041154098E0,-2.785545541E-3,-5.120657086E-1,1.751265079E-1
1.043155431E0,2.836858109E-2,-5.383329391E-1,1.482484490E-1
1.045156064E0,6.257703155E-2,-5.578806400E-1,1.213703677E-1
1.047157430E0,7.418347150E-2,-5.798717737E-1,1.128182635E-1
1.049158763E0,1.004506871E-1,-5.823152661E-1,1.030444205E-1
1.051160096E0,1.077810675E-1,-6.061390042E-1,1.006009504E-1
1.053161462E0,1.199983656E-1,-6.207997203E-1,8.594018221E-2
1.055162795E0,1.383243203E-1,-6.690580845E-1,5.356433243E-2
1.057164128E0,1.548176855E-1,-7.130404115E-1,2.546452917E-2
1.059165461E0,1.535959691E-1,-7.393076420E-1,7.749436423E-3
1.061166794E0,1.487090290E-1,-7.735160589E-1,8.360302076E-3
1.063168127E0,1.426003873E-1,-7.820681930E-1,1.019289810E-2
1.065169460E0,1.157223135E-1,-7.967289686E-1,2.851885371E-2
1.067170793E0,6.807482243E-2,-7.887876630E-1,5.234259740E-2
1.069172159E0,3.630983084E-2,-7.826790214E-1,6.150557846E-2
1.071172392E0,-2.416582778E-2,-7.729052305E-1,6.944682449E-2
1.073173725E0,-9.258273244E-2,-7.509140372E-1,7.616634667E-2
1.075174958E0,-1.298455149E-1,-7.399184704E-1,7.922067493E-2
1.077176291E0,-1.988732964E-1,-6.824971437E-1,9.815749526E-2
1.079177624E0,-2.685119212E-1,-5.878130198E-1,1.354202777E-1
1.081178990E0,-3.069964349E-1,-5.242829919E-1,1.561896950E-1
1.083180323E0,-3.845763206E-1,-3.868383467E-1,1.836786419E-1
1.085181656E0,-4.450519681E-1,-2.677196264E-1,1.885655522E-1
1.087183022E0,-4.670431316E-1,-2.151852250E-1,1.910089999E-1
1.089184355E0,-5.128580332E-1,-1.186685190E-1,1.800134480E-1
1.091185688E0,-5.305731297E-1,-8.507092297E-2,1.794025749E-1
1.093187054E0,-5.586729050E-1,-1.298882812E-2,1.745156497E-1
1.095188387E0,-5.806640387E-1,7.314317673E-2,1.867329627E-1
1.097189720E0,-5.922704935E-1,1.232341230E-1,1.916198730E-1
1.099193753E0,-6.136507988E-1,2.130313069E-1,2.050589174E-1
1.101194619E0,-6.393071413E-1,2.930546701E-1,2.007828504E-1
1.103195952E0,-6.441940069E-1,3.333717585E-1,1.965067834E-1
1.105197318E0,-6.564113498E-1,3.914039731E-1,1.910089999E-1
1.107201751E0,-6.490809917E-1,4.268341362E-1,1.739047915E-1
1.109203084E0,-6.423614621E-1,4.378297031E-1,1.671852767E-1
1.111204450E0,-6.246463656E-1,4.494361579E-1,1.531353593E-1
1.113205783E0,-6.167051196E-1,4.610426128E-1,1.464158446E-1
1.115207116E0,-5.996009111E-1,4.634860456E-1,1.458049715E-1
1.117208816E0,-5.898270011E-1,4.702055752E-1,1.323659569E-1
1.119210149E0,-5.794423223E-1,4.702055752E-1,1.287007630E-1
1.121211482E0,-5.690576434E-1,4.824228883E-1,1.140399873E-1
1.123213915E0,-5.623381138E-1,4.805903137E-1,9.204884619E-2
1.125215248E0,-5.562294126E-1,4.775359631E-1,8.471845835E-2
1.127216581E0,-5.464556217E-1,4.653186500E-1,6.761422753E-2
1.129217914E0,-5.409578085E-1,4.463818371E-1,5.539692566E-2
1.131219247E0,-5.305731297E-1,4.225580990E-1,4.928827286E-2
1.133220580E0,-5.030841827E-1,3.449782133E-1,2.790798992E-2
1.135222046E0,-4.792604446E-1,2.570136189E-1,1.640783972E-3
1.137223046E0,-4.731518030E-1,2.148639113E-1,-5.689599086E-3
1.139224412E0,-4.597127438E-1,1.336188316E-1,-1.912863366E-2
1.141225745E0,-4.529932141E-1,1.042973027E-1,-2.157209627E-2
1.143227078E0,-4.432193935E-1,4.382164031E-2,-3.317853436E-2
1.145228444E0,-4.230608344E-1,-2.398440242E-2,-4.967189953E-2
1.147229777E0,-4.200065136E-1,-5.269506946E-2,-5.883487687E-2
1.149231110E0,-4.059565961E-1,-1.064512134E-1,-7.471737266E-2
1.151232476E0,-3.894632459E-1,-1.522661000E-1,-9.182160348E-2
1.153233809E0,-3.809111416E-1,-1.730355173E-1,-9.609765559E-2
1.155235142E0,-3.613634408E-1,-2.017461807E-1,-1.070932299E-1
1.157236508E0,-3.381505609E-1,-2.267916501E-1,-1.022063047E-1
1.161236840E0,-3.118833601E-1,-2.774934769E-1,-1.162562072E-1
1.163238206E0,-2.978334725E-1,-2.933759689E-1,-1.211431250E-1
1.165239539E0,-2.715662420E-1,-3.343039453E-1,-1.345821619E-1
1.169239138E0,-2.324708700E-1,-3.648472130E-1,-1.345821619E-1
1.171240471E0,-2.086471468E-1,-3.758427799E-1,-1.382473558E-1
1.173241804E0,-1.878777146E-1,-3.648472130E-1,-1.364147663E-1
1.175243170E0,-1.799364686E-1,-3.526299000E-1,-1.315278262E-1
1.177244170E0,-1.652756929E-1,-3.153671324E-1,-1.229757220E-1
1.179245503E0,-1.622213721E-1,-2.652761936E-1,-1.125910208E-1
1.181246869E0,-1.622213721E-1,-2.408415675E-1,-1.107584238E-1
1.183247135E0,-1.616104990E-1,-1.986918598E-1,-1.125910208E-1
1.185248468E0,-1.591670513E-1,-1.620399505E-1,-1.217539981E-1
1.187249834E0,-1.579453051E-1,-1.357727349E-1,-1.235865951E-1
1.189251167E0,-1.573344618E-1,-9.362304211E-2,-1.229757220E-1
1.191252500E0,-1.628322452E-1,-7.224275917E-2,-1.199214011E-1
1.193253866E0,-1.774930060E-1,-1.482142322E-2,-1.070932299E-1
1.195255266E0,-1.988732964E-1,4.748683050E-2,-1.113692820E-1
1.197256932E0,-2.123123258E-1,7.436490059E-2,-1.119801477E-1
1.199258265E0,-2.379686534E-1,1.097950861E-1,-1.290843785E-1
1.201259598E0,-2.654576004E-1,1.421709508E-1,-1.431342810E-1
1.203260931E0,-2.752314508E-1,1.519447863E-1,-1.498537958E-1
1.205262264E0,-2.941682637E-1,1.690490097E-1,-1.516863853E-1
1.207263597E0,-2.960008681E-1,1.733250767E-1,-1.614602357E-1
1.209264963E0,-2.972225845E-1,1.690490097E-1,-1.639036983E-1
1.211266296E0,-3.039421141E-1,1.672164202E-1,-1.767318696E-1
1.213267629E0,-3.057747185E-1,1.653838158E-1,-1.810079217E-1
1.215268995E0,-3.167702854E-1,1.586643010E-1,-1.926143616E-1
1.217270061E0,-3.259332478E-1,1.495013237E-1,-2.133837938E-1
1.219271394E0,-3.302093148E-1,1.342296898E-1,-2.207141668E-1
1.221272760E0,-3.393722773E-1,1.055190265E-1,-2.396509796E-1
1.223274793E0,-3.485352695E-1,7.192143798E-2,-2.500357032E-1
1.225276126E0,-3.515895903E-1,5.237375200E-2,-2.604204118E-1
1.227277492E0,-3.583091199E-1,2.793914452E-2,-2.543117404E-1
1.229278958E0,-3.650286198E-1,2.610654756E-2,-2.359858006E-1
1.231280291E0,-3.656395078E-1,3.343693167E-2,-2.170489877E-1
1.233281657E0,-3.741916120E-1,4.076731578E-2,-1.883383095E-1
1.235282990E0,-3.809111416E-1,5.115202442E-2,-1.718449444E-1
1.237284423E0,-3.839654624E-1,7.436490059E-2,-1.413016766E-1
1.239285789E0,-3.961827755E-1,1.030755714E-1,-1.205322668E-1
1.241287122E0,-4.065674841E-1,1.201797947E-1,-1.107584238E-1
1.243288455E0,-4.218391180E-1,1.635512263E-1,-1.058714986E-1
1.245289821E0,-4.450519681E-1,2.032574564E-1,-9.243246168E-2
1.247291154E0,-4.542149603E-1,2.319681346E-1,-8.510208130E-2
1.249292487E0,-4.737626314E-1,2.942763865E-1,-7.044131309E-2
1.251293853E0,-4.810930192E-1,3.468107879E-1,-5.028276145E-2
1.253295186E0,-4.908668697E-1,3.846844435E-1,-4.050891846E-2
1.255296452E0,-4.908668697E-1,4.494361579E-1,-3.246137872E-3
1.257297818E0,-4.975863993E-1,4.934184551E-1,2.790798992E-2
1.259299151E0,-4.920885861E-1,5.074683428E-1,4.440135136E-2
1.261300484E0,-5.049167871E-1,5.117444396E-1,7.677720487E-2
1.263301850E0,-5.140797496E-1,5.111335516E-1,9.449230134E-2
1.265303183E0,-5.262970328E-1,4.983053803E-1,1.341985464E-1
1.267304516E0,-5.391252637E-1,4.836446345E-1,1.842894852E-1
1.269305849E0,-5.452339053E-1,4.677621126E-1,2.068915069E-1
1.271307182E0,-5.592837930E-1,4.469926953E-1,2.441542745E-1
1.273308515E0,-5.708901882E-1,4.268341362E-1,2.850822508E-1
1.275309848E0,-5.763880014E-1,4.103407860E-1,3.040190637E-1
1.277311448E0,-5.800532103E-1,3.938474059E-1,3.418927193E-1
1.279312814E0,-5.898270011E-1,3.639150262E-1,3.516665697E-1
1.281314147E0,-5.934922695E-1,3.358152211E-1,3.596078157E-1
1.283315247E0,-5.977683067E-1,3.382586837E-1,3.418927193E-1
1.285316613E0,-5.983791351E-1,3.590281010E-1,3.296754062E-1
1.287318646E0,-6.142616868E-1,3.553629220E-1,3.027973771E-1
1.289319846E0,-6.252571940E-1,3.205436170E-1,2.667562962E-1
1.291321212E0,-6.234246492E-1,2.881677151E-1,2.453760207E-1
1.293322545E0,-6.258680820E-1,2.246377617E-1,1.787917018E-1
1.295323878E0,-6.173160076E-1,1.702707559E-1,1.042661443E-1
1.297325544E0,-6.063204408E-1,1.525556445E-1,6.822510064E-2
1.299326877E0,-5.776097178E-1,1.556099802E-1,-8.026768919E-4
1.301328210E0,-5.421795845E-1,1.617186219E-1,-8.510208130E-2
1.303329576E0,-5.159123540E-1,1.763793975E-1,-1.254191846E-1
1.305330909E0,-4.835365117E-1,1.983705461E-1,-2.091077268E-1
1.307331942E0,-4.517715275E-1,2.246377617E-1,-2.921853960E-1
1.309333308E0,-4.419976473E-1,2.411311120E-1,-3.239503801E-1
1.311334641E0,-4.065674841E-1,2.893894613E-1,-3.838151991E-1
1.313335974E0,-3.864088953E-1,3.278740048E-1,-4.088606536E-1
1.315337340E0,-3.503678441E-1,4.292776287E-1,-4.699471593E-1
1.317338673E0,-3.179920018E-1,5.642787814E-1,-5.243142247E-1
1.319340006E0,-3.051638603E-1,6.375826597E-1,-5.408075452E-1
1.321341372E0,-2.929465473E-1,8.074032068E-1,-5.646312833E-1
1.323342705E0,-2.868378758E-1,1.001047492E0,-5.670747757E-1
1.325344038E0,-2.874487638E-1,1.088401198E0,-5.652421713E-1
1.327345404E0,-3.057747185E-1,1.290597677E0,-5.658529997E-1
1.329346737E0,-3.253223896E-1,1.509898186E0,-5.701290965E-1
1.331348070E0,-3.369288445E-1,1.635125637E0,-5.682964921E-1
1.333349436E0,-3.705264330E-1,1.859924078E0,-5.554683208E-1
1.335350769E0,-3.955718875E-1,1.972323298E0,-5.493596792E-1
1.337352102E0,-4.297803640E-1,2.200176001E0,-5.432510376E-1
1.339353435E0,-4.719300568E-1,2.440246105E0,-5.249250531E-1
1.341354768E0,-4.969755113E-1,2.545314789E0,-5.120968819E-1
1.343355634E0,-5.366817713E-1,2.754230738E0,-4.852188230E-1
1.345356967E0,-5.812749267E-1,2.960092306E0,-4.613950849E-1
1.347357600E0,-6.008226275E-1,3.060274124E0,-4.503995180E-1
1.349358966E0,-6.399179697E-1,3.244144678E0,-4.241322875E-1
1.351359966E0,-6.515244246E-1,3.402969837E0,-4.045845866E-1
1.353361299E0,-6.503027081E-1,3.471997261E0,-3.929781616E-1
1.355362665E0,-6.368636489E-1,3.583174706E0,-3.569371104E-1
1.357363598E0,-6.093747616E-1,3.663198233E0,-3.251721263E-1
1.359364931E0,-6.032660604E-1,3.682745934E0,-3.080678880E-1
1.361366364E0,-5.831075311E-1,3.693130732E0,-2.891310751E-1
1.363367697E0,-5.715010762E-1,3.692519665E0,-2.787463665E-1
1.365369030E0,-5.421795845E-1,3.674804688E0,-2.561443448E-1
1.367370696E0,-5.177449584E-1,3.625935555E0,-2.445379049E-1
1.369372029E0,-5.055276752E-1,3.594170332E0,-2.414835840E-1
1.371373362E0,-4.737626314E-1,3.531251192E0,-2.243793607E-1
1.373374728E0,-4.334455431E-1,3.489101648E0,-2.109403163E-1
1.375376061E0,-4.163413048E-1,3.473219156E0,-2.029990703E-1
1.377377394E0,-3.754133284E-1,3.448173523E0,-1.920034885E-1
1.379378760E0,-3.393722773E-1,3.438399792E0,-1.748992801E-1
1.381380093E0,-3.210463226E-1,3.427404404E0,-1.614602357E-1
1.383381426E0,-2.813400924E-1,3.421295643E0,-1.358038932E-1
1.385382792E0,-2.666793168E-1,3.433512926E0,-1.199214011E-1
1.387384125E0,-2.263622284E-1,3.455504179E0,-8.693467826E-2
1.389385458E0,-2.007058859E-1,3.482382059E0,-5.639141425E-2
1.391386824E0,-1.738278270E-1,3.514758110E0,-3.745459020E-2
1.393388157E0,-1.353433132E-1,3.595391989E0,-1.668517292E-2
1.395389490E0,-9.624792635E-2,3.690687180E0,3.473379882E-3
1.397390856E0,-6.814812124E-2,3.740167141E0,1.996674202E-2
1.399392189E0,-1.255938876E-2,3.842792511E0,5.539692566E-2
1.401393522E0,4.547280818E-2,3.934422255E0,1.042661443E-1
1.403394888E0,7.112915069E-2,3.987567663E0,1.305333525E-1
1.405396221E0,1.334374100E-1,4.085916996E0,1.836786419E-1
1.407397554E0,1.658132672E-1,4.134175301E0,2.160544842E-1
1.409398887E0,2.311758399E-1,4.234357357E0,2.838605344E-1
1.411400553E0,2.922623456E-1,4.332706451E0,3.626621366E-1
1.413401886E0,3.234165013E-1,4.378521442E0,4.005357921E-1
1.415403219E0,3.826704025E-1,4.495807648E0,4.793373942E-1
1.417404552E0,4.468112886E-1,4.608206749E0,5.721889138E-1
1.419405918E0,4.779653847E-1,4.668071747E0,6.302211285E-1
1.421407184E0,5.408844948E-1,4.811625004E0,7.487289906E-1
1.423408517E0,6.154100895E-1,4.984499454E0,8.812867403E-1
1.425410583E0,6.526728272E-1,5.074907780E0,9.497036934E-1
1.427411916E0,7.137594223E-1,5.264886856E0,1.066378951E0
1.429413249E0,7.601851225E-1,5.462196350E0,1.172058582E0
1.431418749E0,7.772893906E-1,5.561156750E0,1.219095230E0
1.433420082E0,7.852305770E-1,5.738918304E0,1.305838108E0
1.435421415E0,7.785111070E-1,5.813443661E0,1.338824868E0
1.437422781E0,7.443026900E-1,5.925232410E0,1.396857023E0
1.439424114E0,6.453424692E-1,6.015640259E0,1.477491260E0
1.441425447E0,5.830342174E-1,6.068785667E0,1.512310505E0
1.443426813E0,4.339830875E-1,6.200121403E0,1.579505682E0
1.445428146E0,2.733255327E-1,6.343674660E0,1.632650971E0
1.447429479E0,1.878044158E-1,6.412702560E0,1.661361694E0
1.449431245E0,-2.785545541E-3,6.544649601E0,1.701678753E0
1.451433278E0,-2.117014676E-1,6.667433739E0,1.748715281E0
1.453434611E0,-3.100507557E-1,6.719967842E0,1.769484878E0
1.455435977E0,-5.232427120E-1,6.807321548E0,1.779258609E0
1.457437310E0,-6.313658953E-1,6.836032391E0,1.762765288E0
1.459438643E0,-8.213449717E-1,6.860466957E0,1.702900529E0
1.461440009E0,-9.954416156E-1,6.799380302E0,1.590501308E0
1.463441342E0,-1.078519344E0,6.741348267E0,1.523916960E0
1.465442675E0,-1.228181243E0,6.557477474E0,1.388304949E0
1.467444041E0,-1.354630351E0,6.307633877E0,1.252081871E0
1.469445074E0,-1.407775640E0,6.160415649E0,1.184886694E0
1.471446407E0,-1.495740175E0,5.847652435E0,1.045609474E0
1.473447773E0,-1.544609427E0,5.502513885E0,9.124408364E-1
1.475449106E0,-1.550718069E0,5.336358070E0,8.495217562E-1
1.477450439E0,-1.547052860E0,4.996717453E0,6.968054175E-1
1.479451505E0,-1.509179235E0,4.669904232E0,6.235015988E-1
1.481452838E0,-1.478636026E0,4.529405117E0,4.555136859E-1
1.483454171E0,-1.361960649E0,4.349810600E0,2.838605344E-1
1.485454804E0,-1.287435174E0,4.312547684E0,1.952850670E-1
1.487456137E0,-1.101732135E0,4.296665668E0,1.752328128E-2
1.489457503E0,-8.842641115E-1,4.355919361E0,-1.504646540E-1
1.493456036E0,-5.067493320E-1,4.516577244E0,-3.856477737E-1
1.495457402E0,-2.398012578E-1,4.631419659E0,-5.389750004E-1
1.497458735E0,-1.041891798E-1,4.689451694E0,-6.159439683E-1
1.499460068E0,1.682567298E-1,4.778638363E0,-7.509452105E-1
1.501461434E0,4.327613711E-1,4.817733288E0,-8.731182218E-1
1.503462767E0,5.647082329E-1,4.824453354E0,-9.152679443E-1
1.505464100E0,8.084434867E-1,4.813457489E0,-9.885717630E-1
1.507465466E0,9.202318192E-1,4.798185825E0,-1.025834560E0
1.509466399E0,1.127315164E0,4.724881649E0,-1.091807961E0
1.511467032E0,1.303855181E0,4.613093853E0,-1.157781482E0
1.513468398E0,1.382045984E0,4.545287609E0,-1.188935518E0
1.515469731E0,1.528653622E0,4.387073517E0,-1.237193942E0
1.517471064E0,1.628835559E0,4.207479000E0,-1.273234963E0
1.519472430E0,1.670985222E0,4.114627361E0,-1.282397985E0
1.521473763E0,1.733904243E0,3.939920187E0,-1.285452247E0
1.523475796E0,1.766891122E0,3.757271528E0,-1.268958926E0
1.525477162E0,1.771777987E0,3.681524277E0,-1.255519867E0
1.527478495E0,1.762004137E0,3.516590595E0,-1.221922278E0
1.529480128E0,1.744289041E0,3.357765675E0,-1.201763749E0
1.531481494E0,1.683202505E0,3.276520491E0,-1.165722609E0
1.533482827E0,1.591572762E0,3.131134510E0,-1.161446691E0
1.535484160E0,1.532929659E0,3.071880579E0,-1.174274802E0
1.537485526E0,1.389376402E0,2.960092306E0,-1.205428958E0
1.539486926E0,1.222610116E0,2.858688831E0,-1.253687263E0
1.541488259E0,1.129147649E0,2.809819698E0,-1.278121948E0
1.543489625E0,9.257296324E-1,2.697420120E0,-1.326991081E0
1.545490958E0,7.064290047E-1,2.561808109E0,-1.364253879E0
1.547492291E0,5.934189558E-1,2.470789194E0,-1.377692938E0
1.549493624E0,3.527380228E-1,2.242936611E0,-1.397851467E0
1.551494957E0,1.065593362E-1,1.971101403E0,-1.382579803E0
1.553496290E0,-2.660928853E-2,1.811054826E0,-1.368529916E0
1.555497623E0,-2.825618386E-1,1.421322703E0,-1.326380253E0
1.557498956E0,-4.157304466E-1,1.197746038E0,-1.296447873E0
1.559500322E0,-6.942849755E-1,6.717911363E-1,-1.204818130E0
1.561501655E0,-9.691743851E-1,2.977173962E-2,-1.077758074E0
1.563502655E0,-1.115171194E0,-3.349148333E-1,-1.010562897E0
1.565504521E0,-1.438929677E0,-1.157750249E0,-8.621226549E-1
1.567505854E0,-1.873865843E0,-2.067328691E0,-6.642023325E-1
1.569507187E0,-2.116379499E0,-2.534640551E0,-5.377532244E-1
1.571508553E0,-3.102315903E0,-3.727884591E-1,-1.064823642E-1
1.573509886E0,-4.270289898E0,5.090178967E0,5.782975554E-1
1.575511219E0,-4.628257275E0,7.601446152E0,9.356537461E-1
1.577512585E0,-5.153601170E0,1.239918137E1,1.489097714E0
1.579513918E0,-5.229348660E0,1.403568935E1,1.661972523E0
1.581515251E0,-5.339303970E0,1.553047657E1,1.896544814E0
1.583515917E0,-5.259280682E0,1.531728554E1,1.973513842E0
1.585517250E0,-5.136497021E0,1.479010868E1,2.018717766E0
1.587518583E0,-4.779751778E0,1.328004837E1,2.199533939E0
1.589519949E0,-4.284950733E0,1.157573509E1,2.451210499E0
1.591521282E0,-3.996622562E0,1.076511765E1,2.599650621E0
1.593522615E0,-3.325281382E0,9.328973770E0,2.878816128E0
1.595523981E0,-2.558034897E0,8.235524178E0,3.073071241E0
1.597525314E0,-2.160361528E0,7.831742764E0,3.140266418E0
1.599526847E0,-1.380897641E0,7.248366356E0,3.180583477E0
1.601528213E0,-6.496918201E-1,6.825036526E0,3.103614569E0
1.603529546E0,-3.228789270E-1,6.646664143E0,3.035197496E0
1.605530879E0,2.806559205E-1,6.347340107E0,2.842164040E0
1.607532245E0,5.463823080E-1,6.267316818E0,2.715104342E0
1.609533578E0,1.035074472E0,6.261818886E0,2.426775932E0
1.611534911E0,1.496277690E0,6.462793350E0,2.101184607E0
1.613536277E0,1.720465302E0,6.622840405E0,1.936861992E0
1.615537610E0,2.107753992E0,6.917277336E0,1.631429195E0
1.617538943E0,2.443729639E0,7.085265160E0,1.354707241E0
1.619540276E0,2.579341888E0,7.123750210E0,1.232534289E0
1.621541609E0,2.811470747E0,7.115808487E0,1.024840117E0
1.623543275E0,2.964797735E0,7.074880600E0,8.446348310E-1
1.625544108E0,3.007558346E0,7.038228512E0,7.737745047E-1
1.627545441E0,3.038101673E0,6.946599007E0,6.497687697E-1
1.629546807E0,3.025273323E0,6.889177799E0,5.978452563E-1
1.631547940E0,2.945250273E0,6.776778221E0,4.713961482E-1
1.633549273E0,2.799253464E0,6.643610001E0,3.461687863E-1
1.635550639E0,2.713732243E0,6.569694996E0,2.856931090E-1
1.637553372E0,2.520087957E0,6.424309254E0,2.068915069E-1
1.639554705E0,2.316669703E0,6.295416355E0,1.519136280E-1
1.641558271E0,2.214044333E0,6.249601364E0,1.323659569E-1
1.643559604E0,1.995965600E0,6.153084755E0,9.693576396E-2
1.645560637E0,1.766891122E0,6.079170227E0,5.967298150E-2
1.647562003E0,1.648383141E0,6.048016071E0,4.562308267E-2
1.649563336E0,1.419919610E0,5.959440231E0,1.752328128E-2
1.651564669E0,1.182903886E0,5.861091137E0,-2.829161286E-2
1.653566735E0,1.062563419E0,5.792063713E0,-5.211535469E-2
1.655568068E0,8.243259788E-1,5.646066666E0,-8.449121565E-2
1.657569401E0,7.052072883E-1,5.550161362E0,-1.174779385E-1
1.659570767E0,4.608611763E-1,5.321086407E0,-1.755101383E-1
1.661572100E0,2.104064226E-1,5.086513996E0,-2.182707042E-1
1.663574133E0,7.296174765E-2,4.965562820E0,-2.500357032E-1
1.665575499E0,-1.823799312E-1,4.683954239E0,-2.885202169E-1
1.667576832E0,-4.371107519E-1,4.380964756E0,-3.025701046E-1
1.669578165E0,-5.611163974E-1,4.208700657E0,-3.105113506E-1
1.671579531E0,-8.066841960E-1,3.859896660E0,-3.318916261E-1
1.673580864E0,-1.041256428E0,3.482382059E0,-3.514393270E-1
1.675582897E0,-1.154877424E0,3.287516117E0,-3.606022894E-1
1.677584263E0,-1.366236806E0,2.881901503E0,-3.923673034E-1
1.679585596E0,-1.468862176E0,2.681537867E0,-4.003085196E-1
1.681586929E0,-1.658841133E0,2.287529707E0,-4.027520120E-1
1.683588295E0,-1.841490030E0,1.914291024E0,-3.929781616E-1
1.685589628E0,-1.920902491E0,1.746913910E0,-3.752630651E-1
1.687590961E0,-2.065066576E0,1.409716368E0,-3.312807679E-1
1.689592294E0,-2.195180893E0,1.106727123E0,-2.726377249E-1
1.691593827E0,-2.255656481E0,9.643955827E-1,-2.310988754E-1
1.693595160E0,-2.346675634E0,6.876735687E-1,-1.382473558E-1
1.695596493E0,-2.421201229E0,4.720381796E-1,-3.745459020E-2
1.699597459E0,-2.489617825E0,2.631222606E-1,8.471845835E-2
1.703597925E0,-2.456020355E0,2.197508216E-1,1.561896950E-1
1.705600958E0,-2.367444754E0,3.034393489E-1,1.903981417E-1
1.707602291E0,-2.300860643E0,3.865170181E-1,2.123892903E-1
1.709603624E0,-2.134705305E0,6.516325474E-1,2.478194684E-1
1.711604990E0,-1.931287050E0,1.008988738E0,2.905800343E-1
1.713605623E0,-1.831716061E0,1.209352493E0,3.125711977E-1
1.715606956E0,-1.609361053E0,1.624130011E0,3.528883159E-1
1.717608322E0,-1.344856501E0,2.021192312E0,4.029792547E-1
1.719614022E0,-1.197027087E0,2.207506418E0,4.268030226E-1
1.721615355E0,-8.805989027E-1,2.552034378E0,4.830026031E-1
1.723616021E0,-5.507317185E-1,2.844638586E0,5.269849300E-1
1.725617354E0,-4.010696709E-1,2.942987919E0,5.459216833E-1
1.727618687E0,-1.231260002E-1,3.081043720E0,5.892931223E-1
1.729620053E0,3.933972213E-3,3.116473913E0,6.051756740E-1
1.731621486E0,2.342301607E-1,3.118306398E0,6.375514865E-1
1.733622819E0,4.364265800E-1,3.057830811E0,6.577100754E-1
1.735623485E0,5.146173239E-1,3.007128954E0,6.583209038E-1
1.737624818E0,6.581706405E-1,2.891675234E0,6.595426798E-1
1.739626151E0,7.559091449E-1,2.770724058E0,6.558774710E-1
1.741627517E0,7.931718826E-1,2.709637403E0,6.497687697E-1
1.743628817E0,8.322672844E-1,2.602735996E0,6.381623745E-1
1.745630150E0,8.328781128E-1,2.509884596E0,6.265559196E-1
1.747631516E0,8.212716579E-1,2.456128359E0,6.161711812E-1
1.749632849E0,7.650721073E-1,2.372439861E0,5.960127115E-1
1.751634182E0,7.271984220E-1,2.336398840E0,5.899040103E-1
1.753635548E0,6.392338276E-1,2.271036386E0,5.776867270E-1
1.755636881E0,5.262237787E-1,2.230108500E0,5.599716306E-1
1.757638514E0,4.639154971E-1,2.218502045E0,5.514194965E-1
1.759639880E0,3.399098516E-1,2.198954344E0,5.196545124E-1
1.761641213E0,2.018543035E-1,2.190402031E0,4.671200812E-1
1.763646146E0,1.377134621E-1,2.184904337E0,4.469615519E-1
1.765647046E0,1.065349020E-2,2.173908710E0,3.901510835E-1
1.767648379E0,-1.066326350E-1,2.148252487E0,3.431144357E-1
1.769649379E0,-1.536692679E-1,2.139089346E0,3.131820560E-1
1.771650712E0,-2.440773100E-1,2.118319988E0,2.417108268E-1
1.773652045E0,-3.076072931E-1,2.096939802E0,1.739047915E-1
1.775653411E0,-3.338745236E-1,2.077392101E0,1.384745985E-1
1.777654744E0,-3.735807538E-1,2.038907528E0,7.005769014E-2
1.781653076E0,-3.949610293E-1,1.981486201E0,-4.173064977E-2
1.783654409E0,-3.955718875E-1,1.935671210E0,-1.254191846E-1
1.785655742E0,-3.888523877E-1,1.900241137E0,-1.687906235E-1
1.787657108E0,-3.631960452E-1,1.822661281E0,-2.402618527E-1
1.789658441E0,-3.320418894E-1,1.744470477E0,-3.233395517E-1
1.791659674E0,-3.143268228E-1,1.699877262E0,-3.648783565E-1
1.793661040E0,-2.679010630E-1,1.591754198E0,-4.510103762E-1
1.795662373E0,-2.165883780E-1,1.471413732E0,-5.218707323E-1
1.797663706E0,-1.872668415E-1,1.410327196E0,-5.585226417E-1
1.799664739E0,-1.316781193E-1,1.279602051E0,-6.220526099E-1
1.801666072E0,-9.991311282E-2,1.218515515E0,-6.477090120E-1
1.803667438E0,-3.271793947E-2,1.093288064E0,-6.886369586E-1
1.805668804E0,3.203377500E-2,9.674499035E-1,-7.246779799E-1
1.807670137E0,6.746395677E-2,9.161372185E-1,-7.338409424E-1
1.809671470E0,1.291613430E-1,8.281726241E-1,-7.741580606E-1
1.811672836E0,1.945239305E-1,7.585340142E-1,-8.083665371E-1
1.813674169E0,2.189585418E-1,7.237146497E-1,-8.224164248E-1
1.815675502E0,2.733255327E-1,6.791214943E-1,-8.499053717E-1
1.817676868E0,3.191404343E-1,6.449130177E-1,-8.682312965E-1
1.819678201E0,3.356337845E-1,6.296414137E-1,-8.712856174E-1
1.821679534E0,3.716748357E-1,6.088719964E-1,-8.822812438E-1
1.825677700E0,4.034398496E-1,5.783287287E-1,-8.602901101E-1
1.827679033E0,4.174897373E-1,5.673331022E-1,-8.370772004E-1
1.829680733E0,4.193223119E-1,5.679440498E-1,-8.205838799E-1
1.831682066E0,4.181006253E-1,5.606136322E-1,-7.814884782E-1
1.833683399E0,4.132136703E-1,5.636679530E-1,-7.375061512E-1
1.835684399E0,4.126028121E-1,5.691657662E-1,-7.081846595E-1
1.837685732E0,3.997746706E-1,5.807722211E-1,-6.648131609E-1
1.839687065E0,3.838921487E-1,5.905460119E-1,-6.141113639E-1
1.841688565E0,3.832812905E-1,5.960438251E-1,-5.896767378E-1
1.843689898E0,3.863356113E-1,6.149806380E-1,-5.243142247E-1
1.845691264E0,3.869464695E-1,6.546868682E-1,-4.681145847E-1
1.847692597E0,3.906116784E-1,6.736237407E-1,-4.412365258E-1
1.849693930E0,4.009963572E-1,7.237146497E-1,-3.978650868E-1
1.851695296E0,4.144354165E-1,7.530362010E-1,-3.783174157E-1
1.853696629E0,4.431460798E-1,8.177878857E-1,-3.215069175E-1
1.855697962E0,4.779653847E-1,8.776527047E-1,-2.726377249E-1
1.857699328E0,4.907935858E-1,8.972004056E-1,-2.488139719E-1
1.859700994E0,5.323324203E-1,9.246893525E-1,-2.005556226E-1
1.861702160E0,5.683735013E-1,9.301871061E-1,-1.657363027E-1
1.863703526E0,5.866994262E-1,9.326305389E-1,-1.498537958E-1
1.865704859E0,6.245730519E-1,9.350740314E-1,-1.254191846E-1
1.867706192E0,6.593924165E-1,9.387391806E-1,-1.028171703E-1
1.869707558E0,6.789400578E-1,9.405718446E-1,-9.854111820E-2
1.871708891E0,7.131484747E-1,9.362957478E-1,-8.876727521E-2
1.873710224E0,7.223114967E-1,9.259110689E-1,-9.304332733E-2
1.875711590E0,7.339179516E-1,8.825396299E-1,-1.107584238E-1
1.877712923E0,7.455243468E-1,8.269508481E-1,-1.522972584E-1
1.879714256E0,7.394157052E-1,7.988510728E-1,-1.767318696E-1
1.881720022E0,7.406374216E-1,7.273797989E-1,-2.323206067E-1
1.883721355E0,7.333070636E-1,6.540760398E-1,-2.805789411E-1
1.885722488E0,7.308635712E-1,6.168132424E-1,-3.147874177E-1
1.887723854E0,7.162027955E-1,5.410659909E-1,-3.667109609E-1
1.889725187E0,6.923791170E-1,4.714273214E-1,-4.039737284E-1
1.891726520E0,6.783292294E-1,4.427166581E-1,-4.235214293E-1
1.893727886E0,6.581706405E-1,3.712454140E-1,-4.577298760E-1
1.895729552E0,6.282382607E-1,3.156566918E-1,-4.901057482E-1
1.897730885E0,6.147992015E-1,2.783938944E-1,-5.017122030E-1
1.899738451E0,5.848668218E-1,2.295246720E-1,-5.285902619E-1
1.901739617E0,5.671517253E-1,2.093661129E-1,-5.420293212E-1
1.903740950E0,5.384410620E-1,1.830989271E-1,-5.573009253E-1
1.905742283E0,5.078977942E-1,1.641620994E-1,-5.719616413E-1
1.907743616E0,4.907935858E-1,1.580534428E-1,-5.750159621E-1
1.909744949E0,4.559742510E-1,1.611077785E-1,-5.805137753E-1
1.911746282E0,4.199331999E-1,1.776011288E-1,-5.731834173E-1
1.913747615E0,4.028289914E-1,1.879858375E-1,-5.634095669E-1
1.915748981E0,3.765617609E-1,2.185291052E-1,-5.481379628E-1
1.917750314E0,3.539597392E-1,2.564027309E-1,-5.285902619E-1
1.919751647E0,3.435750306E-1,2.826699615E-1,-5.072099566E-1
1.921753180E0,3.203621805E-1,3.400912881E-1,-4.668928385E-1
1.923754513E0,3.154752553E-1,3.571954966E-1,-4.455125630E-1
1.925755846E0,2.977601588E-1,4.109516740E-1,-4.015302658E-1
1.927757212E0,2.959275544E-1,4.769251049E-1,-3.526610732E-1
1.929758545E0,2.892080247E-1,5.074683428E-1,-3.312807679E-1
1.931759878E0,2.940949798E-1,5.648897290E-1,-2.854658961E-1
1.933760911E0,2.940949798E-1,6.259762049E-1,-2.500357032E-1
1.935762244E0,2.995927334E-1,6.559086442E-1,-2.359858006E-1
1.937763577E0,3.118100464E-1,7.200494409E-1,-2.060534060E-1
1.939764943E0,3.228056431E-1,7.774708271E-1,-1.791753173E-1
1.943763209E0,3.392989933E-1,8.391681910E-1,-1.529081315E-1
1.945764775E0,3.441859186E-1,8.678788543E-1,-1.339713037E-1
1.947766108E0,3.484619856E-1,8.855939507E-1,-1.345821619E-1
1.949767441E0,3.502945602E-1,8.972004056E-1,-1.211431250E-1
1.951768474E0,3.551814854E-1,9.081959724E-1,-1.211431250E-1
1.953769807E0,3.557923436E-1,9.216350317E-1,-1.168670729E-1
1.955771140E0,3.594575524E-1,9.210240841E-1,-1.125910208E-1
1.957772506E0,3.564032316E-1,9.222458601E-1,-1.101475507E-1
1.961769072E0,3.454076648E-1,9.149154425E-1,-1.052606329E-1
1.963770138E0,3.466293514E-1,9.100285769E-1,-1.028171703E-1
1.965771471E0,3.392989933E-1,9.026981592E-1,-1.089258268E-1
1.967772804E0,3.295251429E-1,9.051416516E-1,-1.162562072E-1
1.969774170E0,3.246382177E-1,8.996438384E-1,-1.211431250E-1
1.971775503E0,3.228056431E-1,9.075850844E-1,-1.327495724E-1
1.973776836E0,3.191404343E-1,9.075850844E-1,-1.425234079E-1
1.975778169E0,3.008144796E-1,9.265218973E-1,-1.584059149E-1
1.977779502E0,2.922623456E-1,9.460695982E-1,-1.730666757E-1
1.979780835E0,2.855428457E-1,9.472913146E-1,-1.761209965E-1
1.981782168E0,2.684386373E-1,9.552326202E-1,-1.889491677E-1
1.983783501E0,2.440040112E-1,9.485130906E-1,-1.975012869E-1
1.985784867E0,2.311758399E-1,9.558434486E-1,-2.060534060E-1
1.987786200E0,2.024651766E-1,9.509565234E-1,-2.078859955E-1
1.989787533E0,1.743653715E-1,9.405718446E-1,-2.121620476E-1
1.991788899E0,1.590937525E-1,9.271327853E-1,-2.158272415E-1
1.993790565E0,1.285504699E-1,9.173589349E-1,-2.170489877E-1
1.995791898E0,9.922894835E-2,9.100285769E-1,-2.146055102E-1
1.997793264E0,8.823337406E-2,9.002547264E-1,-2.152163833E-1
1.999794597E0,6.196616963E-2,9.002547264E-1,-2.139946371E-1
2.001795930E0,5.219232664E-2,8.941460848E-1,-2.060534060E-1
2.003797296E0,3.569896147E-2,8.941460848E-1,-2.084968537E-1
2.005798629E0,2.531425655E-2,8.965895176E-1,-2.023882121E-1
2.007799962E0,1.981646940E-2,8.947569132E-1,-2.017773390E-1
2.009801328E0,1.126435492E-2,9.026981592E-1,-1.950578243E-1
2.011802994E0,8.820894174E-3,9.081959724E-1,-1.962795556E-1
2.013804327E0,1.248608623E-2,9.130828977E-1,-1.926143616E-1
2.015805693E0,2.042733319E-2,9.173589349E-1,-1.895600408E-1
2.017809526E0,3.753155842E-2,9.265218973E-1,-1.840622574E-1
2.019810859E0,4.119675234E-2,9.338523149E-1,-1.797861904E-1
2.021812125E0,6.257703155E-2,9.393500686E-1,-1.724558175E-1
2.023814525E0,7.662694156E-2,9.533999562E-1,-1.687906235E-1
2.025815858E0,1.138897166E-1,9.680607319E-1,-1.596276462E-1
2.027817224E0,1.487090290E-1,9.888302088E-1,-1.480211914E-1
2.029818257E0,1.755871177E-1,1.000436544E0,-1.413016766E-1
2.031819590E0,2.201802731E-1,1.022427678E0,-1.327495724E-1
2.033820956E0,2.659951448E-1,1.043197155E0,-1.260300577E-1
2.035823222E0,2.922623456E-1,1.050527573E0,-1.199214011E-1
2.037824555E0,3.472402394E-1,1.061523199E0,-1.095366925E-1
2.039825921E0,4.095484912E-1,1.067631841E0,-1.028171703E-1
2.041827254E0,4.419243336E-1,1.069464326E0,-1.009845734E-1
2.043828587E0,5.066760778E-1,1.069464326E0,-8.937813342E-2
2.045829920E0,5.396627784E-1,1.074351311E0,-8.754553646E-2
2.047831253E0,6.093014479E-1,1.065799236E0,-7.899343222E-2
2.049832586E0,6.813835502E-1,1.062744856E0,-6.860871613E-2
2.051833919E0,7.204788923E-1,1.056636214E0,-6.250006706E-2
2.053835252E0,7.864523530E-1,1.045029759E0,-5.272622406E-2
2.055836618E0,8.444845676E-1,1.033423305E0,-4.417410865E-2
2.057837951E0,8.738061190E-1,1.029147387E0,-3.806545585E-2
2.059839284E0,9.245078564E-1,1.026703835E0,-2.462642081E-2
2.061840650E0,9.691010714E-1,1.016319036E0,-1.607430913E-2
2.063841983E0,9.880378842E-1,1.008377910E0,-8.743925020E-3
2.065843316E0,1.014305115E0,1.008988738E0,-8.026768919E-4
2.067844682E0,1.039961457E0,1.002880096E0,1.263635792E-2
2.069846015E0,1.050346136E0,9.986039996E-1,1.935587637E-2
2.071847348E0,1.058287382E0,9.961605668E-1,3.279491141E-2
2.073848714E0,1.062563419E0,9.973822832E-1,3.462750465E-2
2.075850047E0,1.057676554E0,9.949388504E-1,4.684481025E-2
2.079850246E0,1.049735188E0,1.012653947E0,7.189028710E-2
2.081851579E0,1.037517905E0,1.018762589E0,9.143797308E-2
2.083853179E0,1.018581152E0,1.027925491E0,1.128182635E-1
2.085854545E0,1.014305115E0,1.032201648E0,1.262573004E-1
2.087855878E0,9.874269962E-1,1.046251416E0,1.555788219E-1
2.089857511E0,9.660467505E-1,1.049305797E0,1.812351644E-1
2.091858877E0,9.532185793E-1,1.046862483E0,1.952850670E-1
2.093860210E0,9.208427072E-1,1.052971125E0,2.160544842E-1
2.095860610E0,9.067927599E-1,1.047473311E0,2.343804538E-1
2.097861976E0,8.811364770E-1,1.050527573E0,2.710323632E-1
2.099863042E0,8.518149257E-1,1.044418931E0,2.960778177E-1
2.101864375E0,8.371541500E-1,1.042586327E0,3.107385933E-1
2.103865741E0,8.102761507E-1,1.043197155E0,3.418927193E-1
2.105867074E0,7.888957858E-1,1.030369043E0,3.736577034E-1
2.107868407E0,7.827871442E-1,1.027314663E0,3.858750165E-1
2.109869773E0,7.607960105E-1,1.016319036E0,4.103096426E-1
2.111871106E0,7.418591976E-1,9.992148876E-1,4.371877015E-1
2.113872439E0,7.314744592E-1,9.906627536E-1,4.451289475E-1
2.115874472E0,7.210897803E-1,9.717259407E-1,4.585680068E-1
2.117875805E0,7.052072883E-1,9.448478818E-1,4.689526856E-1
2.119877138E0,7.027637959E-1,9.277436733E-1,4.701744318E-1
2.121878471E0,6.887139082E-1,8.904808760E-1,4.793373942E-1
2.123879804E0,6.807726622E-1,8.739874959E-1,4.854460359E-1
2.125881170E0,6.691662073E-1,8.306161165E-1,4.909438491E-1
2.127882503E0,6.593924165E-1,7.768599391E-1,5.013285279E-1
2.129883503E0,6.532837749E-1,7.567013502E-1,5.062155128E-1
2.131884869E0,6.428990364E-1,7.029452324E-1,5.159893036E-1
2.133886202E0,6.312925816E-1,6.498000026E-1,5.288175344E-1
2.135887302E0,6.294599771E-1,6.217001081E-1,5.343152881E-1
2.137888668E0,6.202970147E-1,5.661114454E-1,5.495868921E-1
2.139890001E0,6.141883731E-1,5.160204172E-1,5.691345930E-1
2.141891334E0,6.202970147E-1,4.854772091E-1,5.746324062E-1
2.143891667E0,6.086905599E-1,4.317210615E-1,5.941800475E-1
2.145893000E0,6.105231047E-1,4.115625322E-1,6.039538980E-1
2.147894333E0,6.093014479E-1,3.657476306E-1,6.235015988E-1
2.149895699E0,6.105231047E-1,3.193218708E-1,6.375514865E-1
2.151897032E0,6.111340523E-1,2.918329239E-1,6.479362249E-1
2.153898365E0,6.074687839E-1,2.515158355E-1,6.589317918E-1
2.155899731E0,6.135774851E-1,2.185291052E-1,6.729816794E-1
2.157901064E0,6.068579555E-1,2.008140087E-1,6.754251719E-1
2.159902664E0,6.031927466E-1,1.672164202E-1,6.845881343E-1
2.161904030E0,6.007493138E-1,1.360622793E-1,6.851989627E-1
2.163905363E0,6.025819182E-1,1.220123917E-1,6.870316267E-1
2.165906696E0,5.958623886E-1,9.696692228E-2,6.851989627E-1
2.167907762E0,5.958623886E-1,7.375403494E-2,6.839772463E-1
2.169909095E0,5.934189558E-1,6.398019195E-2,6.784794927E-1
2.171910428E0,5.897537470E-1,4.626510292E-2,6.705381870E-1
2.173911794E0,5.903646350E-1,3.649125621E-2,6.644295454E-1
2.175912827E0,5.891428590E-1,2.183049172E-2,6.503797174E-1
2.177914160E0,5.909754634E-1,5.947994534E-3,6.351080537E-1
2.179915526E0,5.928080678E-1,-3.214983735E-3,6.253342032E-1
2.181916859E0,5.909754634E-1,-2.276267298E-2,6.057865024E-1
2.183918192E0,5.879211426E-1,-4.292122647E-2,5.837953687E-1
2.185919525E0,5.812016129E-1,-4.780814797E-2,5.673019886E-1
2.187920858E0,5.848668218E-1,-5.941458419E-2,5.459216833E-1
2.189922524E0,5.812016129E-1,-7.346448302E-2,5.196545124E-1
2.191923857E0,5.799798965E-1,-7.590795308E-2,5.056046247E-1
2.193925190E0,5.787581801E-1,-8.934698254E-2,4.799482822E-1
2.195926790E0,5.750929713E-1,-9.850996733E-2,4.665092528E-1
2.197928123E0,5.726495385E-1,-9.912082553E-2,4.377985895E-1
2.199929456E0,5.628756881E-1,-1.021751538E-1,4.084770381E-1
2.201930822E0,5.604321957E-1,-1.076729447E-1,3.956488669E-1
2.203932155E0,5.592105389E-1,-1.076729447E-1,3.681599498E-1
2.205933488E0,5.585995913E-1,-1.058403477E-1,3.406710029E-1
2.207934854E0,5.616539121E-1,-1.033968776E-1,3.308971524E-1
2.209936887E0,5.549344420E-1,-9.789909422E-2,2.942452431E-1
2.211938220E0,5.518801212E-1,-8.812525123E-2,2.734758258E-1
2.213939586E0,5.561560988E-1,-8.201660216E-2,2.551498711E-1
2.215940919E0,5.555452704E-1,-7.712967694E-2,2.288826555E-1
2.217942952E0,5.592105389E-1,-6.430150568E-2,2.050589174E-1
2.219944318E0,5.579887629E-1,-5.819285661E-2,1.897872835E-1
2.221945651E0,5.579887629E-1,-4.719728231E-2,1.629092097E-1
2.223946984E0,5.628756881E-1,-4.902987555E-2,1.549679637E-1
2.225948350E0,5.573778749E-1,-3.192564845E-2,1.329768002E-1
2.227949983E0,5.610430837E-1,-2.826045826E-2,1.122073904E-1
2.229951316E0,5.604321957E-1,-2.276267298E-2,9.754662961E-2
2.231952682E0,5.561560988E-1,-1.665401831E-2,7.372288406E-2
2.233954015E0,5.494366288E-1,-6.269310135E-3,5.417519435E-2
2.235954948E0,5.469931364E-1,-1.115623210E-2,4.195788875E-2
2.237958714E0,5.408844948E-1,4.726264626E-3,2.607539296E-2
2.239960047E0,5.335541368E-1,4.726264626E-3,5.305975210E-3
2.241961380E0,5.323324203E-1,7.169725373E-3,-8.026768919E-4
2.243962746E0,5.256128907E-1,7.169725373E-3,-1.912863366E-2
2.245964079E0,5.146173239E-1,1.022405177E-2,-2.951334417E-2
2.247965412E0,5.005674362E-1,4.726264626E-3,-4.234151542E-2
2.249966778E0,4.877392650E-1,1.205664687E-2,-5.639141425E-2
2.251968111E0,4.767436683E-1,1.083491743E-2,-6.066747382E-2
2.253969444E0,4.565851092E-1,4.115399439E-3,-7.166304439E-2
2.255970777E0,4.382591546E-1,1.671938226E-3,-8.082602918E-2
2.257972110E0,4.260418713E-1,5.337129813E-3,-7.899343222E-2
2.259973510E0,4.009963572E-1,-1.382387942E-3,-8.449121565E-2
2.261974843E0,3.832812905E-1,-1.176709775E-2,-8.815640956E-2
2.263976176E0,3.710640073E-1,-1.237796247E-2,-8.815640956E-2
2.265977542E0,3.502945602E-1,-2.398440242E-2,-8.204775304E-2
2.267978875E0,3.429641724E-1,-3.009305336E-2,-8.571294695E-2
2.269982941E0,3.228056431E-1,-4.047776386E-2,-8.510208130E-2
2.271984307E0,3.081448674E-1,-5.758199096E-2,-8.326948434E-2
2.273985640E0,3.032579422E-1,-7.346448302E-2,-8.082602918E-2
2.275987406E0,2.879863083E-1,-8.995784819E-2,-7.471737266E-2
2.277988072E0,2.769907117E-1,-1.125598624E-1,-6.921958178E-2
2.279989405E0,2.739363909E-1,-1.247771680E-1,-6.738698483E-2
2.281990738E0,2.604973614E-1,-1.376053244E-1,-6.127833575E-2
2.283992104E0,2.592756450E-1,-1.553204358E-1,-5.578054860E-2
2.285993437E0,2.531670034E-1,-1.620399505E-1,-5.211535469E-2
2.287994770E0,2.513343990E-1,-1.724246591E-1,-4.661756754E-2
2.289996170E0,2.427822948E-1,-1.809767783E-1,-4.050891846E-2
2.291997503E0,2.366736233E-1,-1.846419722E-1,-3.928718716E-2
2.293998836E0,2.366736233E-1,-2.005244642E-1,-3.073507361E-2
2.296000902E0,2.275106460E-1,-2.121309042E-1,-2.768074721E-2
2.300001168E0,2.128498852E-1,-2.762717605E-1,-1.301998179E-2
2.302002534E0,2.024651766E-1,-3.019281030E-1,-5.689599086E-3
2.304003867E0,2.000217140E-1,-3.330822289E-1,1.029918785E-3
2.306005200E0,1.859718114E-1,-3.703449965E-1,1.080376282E-2
2.308006566E0,1.865826845E-1,-3.911144137E-1,1.446895394E-2
2.310007899E0,1.743653715E-1,-4.234902561E-1,2.363193408E-2
2.312009232E0,1.652023941E-1,-4.540335536E-1,3.584923968E-2
2.314010598E0,1.621480733E-1,-4.705268741E-1,4.073616117E-2
2.316011931E0,1.578720063E-1,-5.029027462E-1,5.784038454E-2
2.318013264E0,1.517633647E-1,-5.132874846E-1,6.455990672E-2
2.320014564E0,1.468764395E-1,-5.365003943E-1,7.922067493E-2
2.322015897E0,1.523742229E-1,-5.597131848E-1,1.006009504E-1
2.324018363E0,1.499307752E-1,-5.682653189E-1,1.140399873E-1
2.326019696E0,1.517633647E-1,-5.829260945E-1,1.366419941E-1
2.328021029E0,1.535959691E-1,-6.024737954E-1,1.592440158E-1
2.332021362E0,1.639806628E-1,-6.189671755E-1,2.001719773E-1
2.334022795E0,1.639806628E-1,-6.189671755E-1,2.288826555E-1
2.336023695E0,1.707001776E-1,-6.189671755E-1,2.435434312E-1
2.338025028E0,1.780305654E-1,-6.110258698E-1,2.740866840E-1
2.340026361E0,1.768088341E-1,-5.981977582E-1,2.924126387E-1
2.342027727E0,1.786414385E-1,-5.884239078E-1,3.125711977E-1
2.344029060E0,1.871935427E-1,-5.700979829E-1,3.388383985E-1
2.346030393E0,1.902478784E-1,-5.578806400E-1,3.480013609E-1
2.348031426E0,1.981891245E-1,-5.310025811E-1,3.736577034E-1
2.350032726E0,2.024651766E-1,-5.090113878E-1,3.919836879E-1
2.352034059E0,2.091846913E-1,-4.998484254E-1,4.048118591E-1
2.354035425E0,2.042977810E-1,-4.857985377E-1,4.109205008E-1
2.356036058E0,1.987999827E-1,-4.717486203E-1,4.200834632E-1
2.358037391E0,1.957456619E-1,-4.784681499E-1,4.206943214E-1
2.360038757E0,1.902478784E-1,-4.754138291E-1,4.274138510E-1
2.362040090E0,1.707001776E-1,-4.778572619E-1,4.225269556E-1
2.364041423E0,1.615372002E-1,-4.888528585E-1,4.206943214E-1
2.366042789E0,1.389351934E-1,-5.029027462E-1,4.151965678E-1
2.368044122E0,1.254961491E-1,-5.169526339E-1,4.090878963E-1
2.370045455E0,9.739635140E-2,-5.285590887E-1,4.060335755E-1
2.372046821E0,8.029212803E-2,-5.487176776E-1,3.999249339E-1
2.374048154E0,6.868569553E-2,-5.523828268E-1,3.950380087E-1
2.376049487E0,4.730540514E-2,-5.468850732E-1,3.742685914E-1
2.378051087E0,3.630983084E-2,-5.346677303E-1,3.565534949E-1
2.380052420E0,3.020117804E-2,-5.273373127E-1,3.431144357E-1
2.382053753E0,1.798387244E-2,-4.980158508E-1,3.174581230E-1
2.384053986E0,1.859473810E-2,-4.754138291E-1,2.936343551E-1
2.386055319E0,1.615127735E-2,-4.644182324E-1,2.838605344E-1
2.388056652E0,1.615127735E-2,-4.430379570E-1,2.551498711E-1
2.390058018E0,1.676214300E-2,-4.430379570E-1,2.398782372E-1
2.392058251E0,2.775771730E-2,-4.253228903E-1,2.105567008E-1
2.394059484E0,4.119675234E-2,-4.173816144E-1,1.830677688E-1
2.396060850E0,5.280319229E-2,-4.137164354E-1,1.720721871E-1
2.398062183E0,7.235087454E-2,-4.021099806E-1,1.500810385E-1
2.400063516E0,1.004506871E-1,-3.996665478E-1,1.250355542E-1
2.402064849E0,1.175549105E-1,-3.966122270E-1,1.177051738E-1
2.404066182E0,1.474872977E-1,-3.898926675E-1,9.510316700E-2
2.406067515E0,1.725327820E-1,-3.868383467E-1,7.738807797E-2
2.408069181E0,1.884152889E-1,-3.929470181E-1,7.066855580E-2
2.410070514E0,2.134607583E-1,-4.063860476E-1,5.356433243E-2
2.412071880E0,2.403388172E-1,-4.247120023E-1,3.401664272E-2
2.414073213E0,2.519452572E-1,-4.332641363E-1,2.729712427E-2
2.416074546E0,2.708820701E-1,-4.509792030E-1,1.263635792E-2
2.418075912E0,2.794342041E-1,-4.656399786E-1,1.640783972E-3
2.420077245E0,3.020362258E-1,-4.900745749E-1,-5.078733433E-3
2.422078578E0,3.099774420E-1,-5.065679550E-1,-1.668517292E-2
2.424079611E0,3.154752553E-1,-5.187852979E-1,-2.157209627E-2
2.426080944E0,3.270817101E-1,-5.377220511E-1,-2.462642081E-2
2.428082277E0,3.295251429E-1,-5.505502224E-1,-3.378940374E-2
2.430083643E0,3.319686055E-1,-5.554372072E-1,-3.501113132E-2
2.432084976E0,3.447967768E-1,-5.597131848E-1,-3.928718716E-2
2.434086309E0,3.460185230E-1,-5.609349608E-1,-2.829161286E-2
2.436087609E0,3.502945602E-1,-5.572697520E-1,-2.584815212E-2
2.438088375E0,3.521271646E-1,-5.517719984E-1,-1.485257689E-2
2.440089708E0,3.527380228E-1,-5.444415808E-1,-1.301998179E-2
2.442091074E0,3.515163064E-1,-5.358894467E-1,4.084245302E-3
2.444092407E0,3.490728438E-1,-5.212286711E-1,1.752328128E-2
2.446093740E0,3.515163064E-1,-5.163418055E-1,2.118847333E-2
2.448095106E0,3.539597392E-1,-5.077896714E-1,4.317962006E-2
2.450096439E0,3.557923436E-1,-4.998484254E-1,5.967298150E-2
2.452097772E0,3.637336195E-1,-4.919071794E-1,7.005769014E-2
2.454099138E0,3.722856939E-1,-4.790790081E-1,8.777277917E-2
2.456100471E0,3.881682158E-1,-4.625856578E-1,1.115965247E-1
2.458101804E0,3.985529244E-1,-4.546444118E-1,1.244246960E-1
2.460103870E0,4.193223119E-1,-4.522009194E-1,1.537462324E-1
2.462105203E0,4.400917590E-1,-4.387618899E-1,1.696287245E-1
2.464106536E0,4.523090422E-1,-4.344858527E-1,1.885655522E-1
2.466107902E0,4.804088771E-1,-4.265445769E-1,2.130001485E-1
2.468109235E0,4.956804812E-1,-4.234902561E-1,2.209414095E-1
2.470110568E0,5.243911743E-1,-4.204359353E-1,2.472086251E-1
2.472111901E0,5.524909496E-1,-4.271554649E-1,2.685889006E-1
2.474113934E0,5.671517253E-1,-4.198250771E-1,2.771410346E-1
2.476115267E0,6.019710898E-1,-4.228793979E-1,3.015756309E-1
2.478117300E0,6.251838803E-1,-4.314315319E-1,3.162363768E-1
2.480118633E0,6.374012232E-1,-4.363184571E-1,3.247885108E-1
2.482119999E0,6.630575657E-1,-4.448705316E-1,3.443361819E-1
2.484121665E0,6.771074533E-1,-4.497574866E-1,3.528883159E-1
2.486122998E0,6.862704754E-1,-4.613639116E-1,3.602187037E-1
2.488124364E0,6.948225498E-1,-4.766355455E-1,3.767120242E-1
2.490126297E0,7.009311914E-1,-4.851876497E-1,3.779337704E-1
2.492127630E0,6.960443258E-1,-5.102331042E-1,3.846533000E-1
2.494128996E0,6.966551542E-1,-5.291699767E-1,3.858750165E-1
2.496130396E0,6.997094750E-1,-5.413872600E-1,3.950380087E-1
2.498132062E0,6.960443258E-1,-5.584915280E-1,4.023683667E-1
2.500133428E0,6.887139082E-1,-5.780391693E-1,4.023683667E-1
2.502134761E0,6.801618338E-1,-5.853695869E-1,4.005357921E-1
2.504136094E0,6.691662073E-1,-5.939217210E-1,4.066444337E-1
2.506137460E0,6.538946033E-1,-6.061390042E-1,4.109205008E-1
2.508138793E0,6.459533572E-1,-6.110258698E-1,4.121422470E-1
2.510140126E0,6.264056563E-1,-6.146910787E-1,4.096987545E-1
2.512141492E0,6.160209179E-1,-6.153019667E-1,4.115313590E-1
2.514142825E0,5.940297842E-1,-6.128585339E-1,4.188617468E-1
2.516144158E0,5.757038593E-1,-6.165236831E-1,4.151965678E-1
2.518145524E0,5.683735013E-1,-6.153019667E-1,4.219160676E-1
2.520146157E0,5.396627784E-1,-6.073607206E-1,4.249703884E-1
2.522147490E0,5.213368535E-1,-5.975868702E-1,4.298573434E-1
2.524149123E0,5.115630031E-1,-5.878130198E-1,4.316899180E-1
2.526150456E0,4.938479066E-1,-5.694870353E-1,4.371877015E-1
2.528151989E0,4.816305935E-1,-5.371112227E-1,4.469615519E-1
2.530153355E0,4.706349969E-1,-5.230612755E-1,4.579571187E-1
2.532154955E0,4.565851092E-1,-4.998484254E-1,4.634549022E-1
2.534155588E0,4.474221468E-1,-4.815224707E-1,4.628440440E-1
2.536156954E0,4.449786544E-1,-4.699160457E-1,4.720070064E-1
2.538157587E0,4.345939755E-1,-4.589204788E-1,4.836134613E-1
2.540158920E0,4.321505129E-1,-4.515900910E-1,4.939981699E-1
2.542160253E0,4.229875207E-1,-4.467031658E-1,5.117132664E-1
2.544161586E0,4.168788791E-1,-4.448705316E-1,5.178219080E-1
2.546162919E0,4.113810956E-1,-4.412053525E-1,5.190436244E-1
2.548164252E0,3.979420364E-1,-4.399836361E-1,5.239305496E-1
2.550164985E0,3.930551410E-1,-4.412053525E-1,5.288175344E-1
2.552166351E0,3.814486861E-1,-4.442597032E-1,5.251522660E-1
2.554167684E0,3.612901270E-1,-4.534226656E-1,5.190436244E-1
2.556169017E0,3.447967768E-1,-4.693051875E-1,5.123241544E-1
2.558170383E0,3.325794637E-1,-4.729703665E-1,5.013285279E-1
2.560171716E0,3.111991882E-1,-4.839659333E-1,4.933873117E-1
2.562173582E0,3.038688004E-1,-5.022919178E-1,4.817808568E-1
2.564174948E0,2.763798833E-1,-5.138983130E-1,4.640657604E-1
2.566176581E0,2.537778616E-1,-5.389437675E-1,4.353550971E-1
2.568177914E0,2.403388172E-1,-5.474959016E-1,4.237486720E-1
2.570179280E0,2.140716165E-1,-5.627675653E-1,4.090878963E-1
2.572180613E0,1.939130723E-1,-5.823152661E-1,3.834315538E-1
2.574181946E0,1.823066324E-1,-5.798717737E-1,3.693816662E-1
2.576182979E0,1.670349836E-1,-5.914782286E-1,3.425036073E-1
2.578184312E0,1.450438350E-1,-5.896456242E-1,3.192906976E-1
2.580186778E0,1.426003873E-1,-5.933107734E-1,3.095168769E-1
2.582188544E0,1.267178953E-1,-5.945325494E-1,2.881366014E-1
2.584189610E0,1.132788509E-1,-5.945325494E-1,2.734758258E-1
2.586190943E0,1.059484705E-1,-5.951434374E-1,2.679780126E-1
2.588192109E0,9.861809015E-2,-5.957542658E-1,2.563715875E-1
2.590193442E0,9.373116493E-2,-6.012520790E-1,2.527064085E-1
2.592194508E0,8.334644884E-2,-6.079715490E-1,2.496520728E-1
2.594195874E0,7.235087454E-2,-6.140801907E-1,2.514846623E-1
2.596196874E0,7.174001634E-2,-6.201888919E-1,2.502629459E-1
2.598198207E0,6.807482243E-2,-6.305736303E-1,2.514846623E-1
2.600199573E0,5.830097944E-2,-6.464561224E-1,2.575933337E-1
2.602200906E0,5.952271074E-2,-6.482886672E-1,2.637019753E-1
2.604202239E0,6.013357639E-2,-6.666146517E-1,2.734758258E-1
2.606203672E0,5.158146471E-2,-6.788319945E-1,2.814170420E-1
2.608205005E0,4.547280818E-2,-6.843296885E-1,2.887474298E-1
2.610206338E0,4.547280818E-2,-6.996013522E-1,2.863039970E-1
2.612207671E0,4.058588669E-2,-7.112078071E-1,2.918017805E-1
2.614209604E0,3.020117804E-2,-7.215925455E-1,3.027973771E-1
2.616210937E0,2.164906450E-2,-7.466380000E-1,3.137929440E-1
2.618212270E0,1.676214300E-2,-7.545792460E-1,3.180689812E-1
2.620213603E0,1.490511233E-3,-7.735160589E-1,3.339514732E-1
2.622214436E0,-4.618141335E-3,-8.003941178E-1,3.467796445E-1
2.624215769E0,-8.894198574E-3,-8.120005727E-1,3.504448235E-1
2.626216802E0,-1.683544554E-2,-8.401003480E-1,3.663273454E-1
2.628218168E0,-2.722015604E-2,-8.730871081E-1,3.828206956E-1
2.630219501E0,-3.455053642E-2,-8.889696002E-1,3.846533000E-1
2.632220834E0,-3.760486469E-2,-9.152368307E-1,3.919836879E-1
2.634222200E0,-4.371351749E-2,-9.384496212E-1,3.944271207E-1
2.636223866E0,-4.249178618E-2,-9.592190981E-1,3.925945461E-1
2.638225199E0,-4.615698010E-2,-9.830428362E-1,3.938162923E-1
2.640225432E0,-4.982217029E-2,-9.977036119E-1,3.980923295E-1
2.642226365E0,-4.921130463E-2,-1.024581671E0,3.974814713E-1
2.644227398E0,-5.165476725E-2,-1.053903222E0,4.048118591E-1
2.646228764E0,-4.676784202E-2,-1.069785595E0,4.005357921E-1
2.648230097E0,-4.432438314E-2,-1.097885489E0,4.011466801E-1
2.650231430E0,-3.088534810E-2,-1.135759115E0,4.023683667E-1
2.652232796E0,-2.538755909E-2,-1.140035152E0,4.023683667E-1
2.654234129E0,-1.622457989E-2,-1.166913271E0,3.987031877E-1
2.656235995E0,8.796459297E-4,-1.198678255E0,3.895402253E-1
2.658237361E0,2.101376420E-3,-1.201121688E0,3.883184791E-1
2.660238694E0,2.225993015E-2,-1.238384485E0,3.980923295E-1
2.662240027E0,3.081204183E-2,-1.253045321E0,3.993140459E-1
2.664241393E0,4.302934557E-2,-1.274425507E0,4.090878963E-1
2.666243359E0,5.646838248E-2,-1.297638416E0,4.164182842E-1
2.668244692E0,6.318789721E-2,-1.314742684E0,4.158074260E-1
2.670246058E0,7.601606846E-2,-1.344675064E0,4.213052094E-1
2.672247391E0,8.212472498E-2,-1.369720578E0,4.341333807E-1
2.674248124E0,8.762251586E-2,-1.386213899E0,4.384094179E-1
2.676249490E0,8.578991890E-2,-1.413091898E0,4.512376189E-1
2.678250823E0,8.151385188E-2,-1.438137412E0,4.469615519E-1
2.680252156E0,7.845953107E-2,-1.454019904E0,4.500158727E-1
2.682253489E0,7.051828504E-2,-1.494947910E0,4.530701935E-1
2.684254822E0,5.707925186E-2,-1.530378103E0,4.530701935E-1
2.686256155E0,4.364021122E-2,-1.551147461E0,4.585680068E-1
2.688257488E0,3.325550631E-2,-1.596351504E0,4.652875066E-1
2.690258821E0,2.225993015E-2,-1.614677548E0,4.658983648E-1
2.692260187E0,1.492954604E-2,-1.659881473E0,4.628440440E-1
2.694261520E0,2.101376420E-3,-1.690424800E0,4.646766484E-1
2.696262853E0,2.687807137E-4,-1.704474688E0,4.628440440E-1
2.698264219E0,-6.450736895E-3,-1.738683105E0,4.665092528E-1
2.700265219E0,-1.317025442E-2,-1.768615603E0,4.707852900E-1
2.702266552E0,-1.194852404E-2,-1.782054543E0,4.787265360E-1
2.704268218E0,-1.744631119E-2,-1.807100058E0,4.903329909E-1
2.706269551E0,-1.561371610E-2,-1.829702020E0,5.007176995E-1
2.708270884E0,-2.050063759E-2,-1.839475989E0,5.049937367E-1
2.710272250E0,-1.805717684E-2,-1.860245347E0,5.159893036E-1
2.712274016E0,-1.927890815E-2,-1.865743160E0,5.208762288E-1
2.714275349E0,-2.294410020E-2,-1.873684287E0,5.300392509E-1
2.716276515E0,-2.477669530E-2,-1.878571272E0,5.385913253E-1
2.718277848E0,-2.660928853E-2,-1.879792929E0,5.410348177E-1
2.720279181E0,-2.966361679E-2,-1.870630026E0,5.514194965E-1
2.722280547E0,-3.760486469E-2,-1.877349615E0,5.605824590E-1
2.724281880E0,-4.004832357E-2,-1.874295235E0,5.630259514E-1
2.726283113E0,-4.493524879E-2,-1.867575645E0,5.740215182E-1
2.728284479E0,-5.531995744E-2,-1.868186474E0,5.782975554E-1
2.730285812E0,-6.387206912E-2,-1.873073459E0,5.825735927E-1
2.732287145E0,-7.364591211E-2,-1.859023571E0,5.911257267E-1
2.734288511E0,-7.975456864E-2,-1.852914929E0,5.862388015E-1
2.736289844E0,-8.952841163E-2,-1.841919303E0,5.978452563E-1
2.738291177E0,-1.054109037E-1,-1.829091191E0,6.033430696E-1
2.740292543E0,-1.084652320E-1,-1.824204206E0,6.051756740E-1
2.742293876E0,-1.212934032E-1,-1.816263080E0,6.112843156E-1
2.744295209E0,-1.475606114E-1,-1.796715379E0,6.137278080E-1
2.746296575E0,-1.561127156E-1,-1.791828394E0,6.210581660E-1
2.748297575E0,-1.762712747E-1,-1.780221939E0,6.265559196E-1
2.750298908E0,-1.964298189E-1,-1.754565716E0,6.332754493E-1
2.752300241E0,-2.037602067E-1,-1.747846127E0,6.393840909E-1
2.754301574E0,-2.153666466E-1,-1.735628843E0,6.442710161E-1
2.756302907E0,-2.324708700E-1,-1.705085516E0,6.534340382E-1
2.758304240E0,-2.428555936E-1,-1.695922613E0,6.570991874E-1
2.760305906E0,-2.569054961E-1,-1.669655442E0,6.656513214E-1
2.762307272E0,-2.569054961E-1,-1.660492420E0,6.687056422E-1
2.764308605E0,-2.624032795E-1,-1.634836078E0,6.815338135E-1
2.766309938E0,-2.666793168E-1,-1.617120981E0,6.851989627E-1
2.768311304E0,-2.611815631E-1,-1.611623168E0,6.882532835E-1
2.770312637E0,-2.587381005E-1,-1.596351504E0,6.974163055E-1
2.772313537E0,-2.471316308E-1,-1.579858184E0,7.102444172E-1
2.774314903E0,-2.422447205E-1,-1.574360371E0,7.145205140E-1
2.776316236E0,-2.294165492E-1,-1.563975692E0,7.249051929E-1
2.778317402E0,-2.190318406E-1,-1.552369237E0,7.297921777E-1
2.780318768E0,-2.110905945E-1,-1.545038819E0,7.352899313E-1
2.782320101E0,-1.939863712E-1,-1.538319349E0,7.352899313E-1
2.784321434E0,-1.842125207E-1,-1.538319349E0,7.389551401E-1
2.786322200E0,-1.664974391E-1,-1.525491238E0,7.444529533E-1
2.788323533E0,-1.603887826E-1,-1.518160820E0,7.511724234E-1
2.790324866E0,-1.548909843E-1,-1.518160820E0,7.450637817E-1
2.792326232E0,-1.420628130E-1,-1.508997798E0,7.499507070E-1
2.794327565E0,-1.353433132E-1,-1.491282701E0,7.499507070E-1
2.796328898E0,-1.353433132E-1,-1.490671873E0,7.505615950E-1
2.798332231E0,-1.341215670E-1,-1.489450097E0,7.487289906E-1
2.800333564E0,-1.328998357E-1,-1.482119799E0,7.475072742E-1
2.802334897E0,-1.377867609E-1,-1.485174060E0,7.426202893E-1
2.804336263E0,-1.390084922E-1,-1.487006664E0,7.426202893E-1
2.806337596E0,-1.506149322E-1,-1.488228440E0,7.413986325E-1
2.808339262E0,-1.530583948E-1,-1.490061045E0,7.340682149E-1
2.810340628E0,-1.664974391E-1,-1.505943537E0,7.322356105E-1
2.812341961E0,-1.701626331E-1,-1.508997798E0,7.328464985E-1
2.814342961E0,-1.842125207E-1,-1.521215081E0,7.279595137E-1
2.816344327E0,-1.939863712E-1,-1.535875797E0,7.236835361E-1
2.818345660E0,-1.988732964E-1,-1.542595506E0,7.224618196E-1
2.820346993E0,-2.129231840E-1,-1.555423617E0,7.236835361E-1
2.822353426E0,-2.220861614E-1,-1.573138714E0,7.249051929E-1
2.824354759E0,-2.245296389E-1,-1.576192975E0,7.267378569E-1
2.826356092E0,-2.428555936E-1,-1.589632034E0,7.261269689E-1
2.828357425E0,-2.471316308E-1,-1.604292870E0,7.328464985E-1
2.830358758E0,-2.532402873E-1,-1.618953586E0,7.352899313E-1
2.832359758E0,-2.630141377E-1,-1.633003473E0,7.334573269E-1
2.834361091E0,-2.691228092E-1,-1.640944719E0,7.291812897E-1
2.836362424E0,-2.825618386E-1,-1.658048987E0,7.346791029E-1
2.838365324E0,-2.935574055E-1,-1.675153255E0,7.346791029E-1
2.840366657E0,-3.027203679E-1,-1.683705330E0,7.310138941E-1
2.842367990E0,-3.179920018E-1,-1.690424800E0,7.267378569E-1
2.844369356E0,-3.442592025E-1,-1.709972501E0,7.212400436E-1
2.846370689E0,-3.534222245E-1,-1.717302799E0,7.200183272E-1
2.848372022E0,-3.723590076E-1,-1.727076650E0,7.108553648E-1
2.850373388E0,-4.022914171E-1,-1.743570089E0,7.004706264E-1
2.852374721E0,-4.096218050E-1,-1.752732992E0,6.955837011E-1
2.854376054E0,-4.419976473E-1,-1.776556730E0,6.760360003E-1
2.856377420E0,-4.560475349E-1,-1.783887148E0,6.644295454E-1
2.858380420E0,-4.878125489E-1,-1.808932662E0,6.424384117E-1
2.860381753E0,-5.146906376E-1,-1.840086818E0,6.155603528E-1
2.862383119E0,-5.269079208E-1,-1.852914929E0,6.021213531E-1
2.864384119E0,-5.550077558E-1,-1.877349615E0,5.776867270E-1
2.866385452E0,-5.806640387E-1,-1.909114480E0,5.599716306E-1
2.868386818E0,-5.922704935E-1,-1.920110106E0,5.471434593E-1
2.870388151E0,-6.075420976E-1,-1.941490412E0,5.269849300E-1
2.872389484E0,-6.319767237E-1,-1.954318643E0,5.062155128E-1
2.874391184E0,-6.362528205E-1,-1.962870717E0,4.952199161E-1
2.876392517E0,-6.509135962E-1,-1.980585814E0,4.762830734E-1
2.878393850E0,-6.600765586E-1,-1.986694455E0,4.597896934E-1
2.880395216E0,-6.637417674E-1,-1.990970492E0,4.524593055E-1
2.884392782E0,-6.661852002E-1,-2.013572454E0,4.316899180E-1
2.886394148E0,-6.686286330E-1,-2.016626835E0,4.280247092E-1
2.888395481E0,-6.692395210E-1,-2.020292044E0,4.194726348E-1
2.890396814E0,-6.649634838E-1,-2.022124529E0,4.158074260E-1
2.892398514E0,-6.600765586E-1,-2.029454947E0,4.072553217E-1
2.894399847E0,-6.588547826E-1,-2.039228916E0,3.987031877E-1
2.896401180E0,-6.545787454E-1,-2.047780991E0,3.932054043E-1
2.900402346E0,-6.441940069E-1,-2.071604729E0,3.944271207E-1
2.902403646E0,-6.423614621E-1,-2.083822012E0,3.925945461E-1
2.904404912E0,-6.338093281E-1,-2.103369713E0,3.993140459E-1
2.906406178E0,-6.331984997E-1,-2.113754511E0,4.011466801E-1
2.908407478E0,-6.313658953E-1,-2.131469488E0,4.048118591E-1
2.910408511E0,-6.252571940E-1,-2.154071569E0,4.115313590E-1
2.912409777E0,-6.209812164E-1,-2.165678024E0,4.121422470E-1
2.914411077E0,-6.179268360E-1,-2.187669277E0,4.237486720E-1
2.916412343E0,-6.179268360E-1,-2.205384254E0,4.298573434E-1
2.920411276E0,-6.093747616E-1,-2.227375269E0,4.487941265E-1
2.922412542E0,-6.069312692E-1,-2.224321127E0,4.585680068E-1
2.924414142E0,-6.038769484E-1,-2.221877337E0,4.695635736E-1
2.926415442E0,-5.989900231E-1,-2.227375269E0,4.799482822E-1
2.928416708E0,-5.910487771E-1,-2.217601538E0,5.007176995E-1
2.930417708E0,-5.898270011E-1,-2.212103844E0,5.043828487E-1
2.932419008E0,-5.806640387E-1,-2.193166971E0,5.208762288E-1
2.934420274E0,-5.757771730E-1,-2.181560516E0,5.312609076E-1
2.936421574E0,-5.660033226E-1,-2.158347607E0,5.385913253E-1
2.938422874E0,-5.525642633E-1,-2.139410734E0,5.532521009E-1
2.940424007E0,-5.458447337E-1,-2.129026175E0,5.550847054E-1
2.942425307E0,-5.397360921E-1,-2.099704504E0,5.618041754E-1
2.944426607E0,-5.330166221E-1,-2.077102423E0,5.685237646E-1
2.946427873E0,-5.250753164E-1,-2.067328691E0,5.709671378E-1
2.948429173E0,-5.183558464E-1,-2.055111408E0,5.709671378E-1
2.950430473E0,-5.128580332E-1,-2.050835133E0,5.721889138E-1
2.952431739E0,-5.171340704E-1,-2.050835133E0,5.715780854E-1
2.954433039E0,-5.140797496E-1,-2.059998274E0,5.691345930E-1
2.956434339E0,-5.122471452E-1,-2.063052416E0,5.679128170E-1
2.958435672E0,-5.171340704E-1,-2.063052416E0,5.697454810E-1
2.960437038E0,-5.238536000E-1,-2.065496206E0,5.679128170E-1
2.962438371E0,-5.214101672E-1,-2.061219931E0,5.697454810E-1
2.964439704E0,-5.281296372E-1,-2.058776617E0,5.673019886E-1
2.966441070E0,-5.372926593E-1,-2.056333065E0,5.624151230E-1
2.968442403E0,-5.440121293E-1,-2.059998274E0,5.581390262E-1
2.970443969E0,-5.507317185E-1,-2.052667856E0,5.550847054E-1
2.972445335E0,-5.702793598E-1,-2.049613476E0,5.611933470E-1
2.974446668E0,-5.727228522E-1,-2.049613476E0,5.624151230E-1
2.976448001E0,-5.886052847E-1,-2.034341812E0,5.587498546E-1
2.978449367E0,-6.008226275E-1,-2.023957253E0,5.575281382E-1
2.980450700E0,-6.118181944E-1,-2.014183283E0,5.593608022E-1
2.982452033E0,-6.301441789E-1,-2.010518074E0,5.599716306E-1
2.984453399E0,-6.368636489E-1,-2.009907246E0,5.624151230E-1
2.986454732E0,-6.435831785E-1,-2.005020380E0,5.636367798E-1
2.988456065E0,-6.582439542E-1,-2.009296417E0,5.697454810E-1
2.990457698E0,-6.576331258E-1,-2.006242037E0,5.703563094E-1
2.992459031E0,-6.686286330E-1,-2.005631208E0,5.789084435E-1
2.994460364E0,-6.716829538E-1,-2.008685589E0,5.905148983E-1
2.996461764E0,-6.686286330E-1,-2.009907246E0,5.935692191E-1
2.998463164E0,-6.698504090E-1,-2.012350798E0,5.996778607E-1
3.000464697E0,-6.686286330E-1,-2.020292044E0,6.057865024E-1
3.002466097E0,-6.655743122E-1,-2.014183283E0,6.125060320E-1
3.004467497E0,-6.564113498E-1,-2.018459558E0,6.180038452E-1
3.006468897E0,-6.582439542E-1,-2.017848492E0,6.210581660E-1
3.008470297E0,-6.509135962E-1,-2.013572454E0,6.247233152E-1
3.010471463E0,-6.417506337E-1,-2.006853104E0,6.296102405E-1
3.012472863E0,-6.362528205E-1,-2.009907246E0,6.314428449E-1
3.014474263E0,-6.283115745E-1,-2.001966000E0,6.308319569E-1
3.016475363E0,-6.179268360E-1,-1.987916112E0,6.387732625E-1
3.018477096E0,-6.148725152E-1,-1.983640194E0,6.338862777E-1
3.020478496E0,-6.063204408E-1,-1.967146754E0,6.241124868E-1
3.022479896E0,-5.928813219E-1,-1.949431658E0,6.173929572E-1
3.024481296E0,-5.873836279E-1,-1.943933845E0,6.143386364E-1
3.026482696E0,-5.806640387E-1,-1.931716561E0,6.008995771E-1
3.028484096E0,-5.776097178E-1,-1.928662181E0,5.868496895E-1
3.030485496E0,-5.782206059E-1,-1.921331882E0,5.782975554E-1
3.032486896E0,-5.696685314E-1,-1.921331882E0,5.563064218E-1
3.034488296E0,-5.653924346E-1,-1.924386263E0,5.447000265E-1
3.036489696E0,-5.623381138E-1,-1.925607920E0,5.196545124E-1
3.038491096E0,-5.660033226E-1,-1.937214375E0,4.964416325E-1
3.040492496E0,-5.647815466E-1,-1.945155621E0,4.811699986E-1
3.042493896E0,-5.653924346E-1,-1.957983732E0,4.567353725E-1
3.044495296E0,-5.715010762E-1,-1.970201015E0,4.274138510E-1
3.046501529E0,-5.751662850E-1,-1.978753209E0,4.084770381E-1
3.048502962E0,-5.763880014E-1,-1.995857477E0,3.809880912E-1
3.050504028E0,-5.776097178E-1,-2.016626835E0,3.534991741E-1
3.052505428E0,-5.818858147E-1,-2.018459558E0,3.400601149E-1
3.054506861E0,-5.861618519E-1,-2.027011633E0,3.144037724E-1
3.056508194E0,-5.837183595E-1,-2.035563707E0,3.003538847E-1
3.058509527E0,-5.843293071E-1,-2.047780991E0,2.759192884E-1
3.060510893E0,-5.910487771E-1,-2.064274311E0,2.545390129E-1
3.062512226E0,-5.947139859E-1,-2.070993900E0,2.429325581E-1
3.064513559E0,-5.879944563E-1,-2.092374086E0,2.209414095E-1
3.066514925E0,-5.892161727E-1,-2.108867407E0,2.032263130E-1
3.068516258E0,-5.873836279E-1,-2.114976168E0,1.952850670E-1
3.070518124E0,-5.837183595E-1,-2.138799906E0,1.873438060E-1
3.072519490E0,-5.818858147E-1,-2.161401749E0,1.787917018E-1
3.074520523E0,-5.837183595E-1,-2.177284479E0,1.745156497E-1
3.076522156E0,-5.776097178E-1,-2.205995083E0,1.714613140E-1
3.078523189E0,-5.831075311E-1,-2.216379881E0,1.696287245E-1
3.080524522E0,-5.788314939E-1,-2.228597164E0,1.739047915E-1
3.082525855E0,-5.806640387E-1,-2.261583805E0,1.824568957E-1
3.084527488E0,-5.763880014E-1,-2.279909611E0,1.922307462E-1
3.086528821E0,-5.751662850E-1,-2.304955244E0,2.038371712E-1
3.088530154E0,-5.715010762E-1,-2.323892117E0,2.239957303E-1
3.090537587E0,-5.672250390E-1,-2.333666086E0,2.374347746E-1
3.092538920E0,-5.678358674E-1,-2.336109400E0,2.563715875E-1
3.094540253E0,-5.666142106E-1,-2.336720228E0,2.869148552E-1
3.096541386E0,-5.635598302E-1,-2.337941885E0,2.991321683E-1
3.098542719E0,-5.562294126E-1,-2.328168154E0,3.339514732E-1
3.100549819E0,-5.562294126E-1,-2.298235655E0,3.651055992E-1
3.102551185E0,-5.525642633E-1,-2.282964230E0,3.815989792E-1
3.104552518E0,-5.421795845E-1,-2.245701313E0,4.164182842E-1
3.108550351E0,-5.299623013E-1,-2.190723419E0,4.585680068E-1
3.110552017E0,-5.140797496E-1,-2.149184465E0,4.891112447E-1
3.112553350E0,-5.024733543E-1,-2.131469488E0,5.013285279E-1
3.114554683E0,-4.890342653E-1,-2.092985153E0,5.196545124E-1
3.116556016E0,-4.731518030E-1,-2.059998274E0,5.312609076E-1
3.118557382E0,-4.621562064E-1,-2.050224304E0,5.373696089E-1
3.120558715E0,-4.432193935E-1,-2.021513700E0,5.526412129E-1
3.122560548E0,-4.303911924E-1,-2.000133514E0,5.581390262E-1
3.124561914E0,-4.248934388E-1,-2.002576828E0,5.599716306E-1
3.126563247E0,-4.230608344E-1,-1.993413925E0,5.630259514E-1
3.128564580E0,-4.181739092E-1,-1.996468306E0,5.605824590E-1
3.130565646E0,-4.071783423E-1,-2.008685589E0,5.569173098E-1
3.132566979E0,-4.041240215E-1,-2.025178909E0,5.563064218E-1
3.134568612E0,-3.998479545E-1,-2.033730984E0,5.544738173E-1
3.136573645E0,-3.949610293E-1,-2.048391819E0,5.465325713E-1
3.141379702E0,-3.900741041E-1,-2.051445961E0,5.385913253E-1
3.143381335E0,-3.845763206E-1,-2.063663483E0,5.318718553E-1
3.145382701E0,-3.839654624E-1,-2.086876154E0,5.263740420E-1
3.147383767E0,-3.766350746E-1,-2.111921787E0,5.172110796E-1
3.149385100E0,-3.772459328E-1,-2.125360727E0,5.086589456E-1
3.151386466E0,-3.668612242E-1,-2.152239084E0,4.964416325E-1
3.155383065E0,-3.650286198E-1,-2.185836315E0,4.817808568E-1
3.157384431E0,-3.576982319E-1,-2.200497389E0,4.707852900E-1
3.159385997E0,-3.497570157E-1,-2.206605911E0,4.689526856E-1
3.161387330E0,-3.412048817E-1,-2.220655680E0,4.549027979E-1
3.165384263E0,-3.259332478E-1,-2.253642559E0,4.359659851E-1
3.167385596E0,-3.192137480E-1,-2.275022984E0,4.151965678E-1
3.169386962E0,-3.131051064E-1,-2.298846722E0,3.974814713E-1
3.171388295E0,-3.106616139E-1,-2.303733349E0,3.895402253E-1
3.173389628E0,-2.960008681E-1,-2.327557087E0,3.785446584E-1
3.175390994E0,-2.898922265E-1,-2.346494198E0,3.589969575E-1
3.177392327E0,-2.898922265E-1,-2.355657101E0,3.565534949E-1
3.179393660E0,-2.837835550E-1,-2.372761250E0,3.455579281E-1
3.181394993E0,-2.819509506E-1,-2.383756876E0,3.412818611E-1
3.183396326E0,-2.801183760E-1,-2.397806644E0,3.290645480E-1
3.185396826E0,-2.733988464E-1,-2.415521622E0,3.217341602E-1
3.187398159E0,-2.727879882E-1,-2.419187069E0,3.156255186E-1
3.189399492E0,-2.758423090E-1,-2.435680389E0,3.113494515E-1
3.191400858E0,-2.801183760E-1,-2.450951815E0,2.997429967E-1
3.193402191E0,-2.850052714E-1,-2.458282471E0,3.009647429E-1
3.195403524E0,-2.782857716E-1,-2.484549522E0,2.905800343E-1
3.197404890E0,-2.868378758E-1,-2.502264738E0,2.795844674E-1
3.201403889E0,-2.862270176E-1,-2.530364513E0,2.704214752E-1
3.203404955E0,-2.905030847E-1,-2.527310133E0,2.661454380E-1
3.205406288E0,-2.850052714E-1,-2.535862207E0,2.655345798E-1
3.207407621E0,-2.819509506E-1,-2.542581797E0,2.582041919E-1
3.209408987E0,-2.825618386E-1,-2.547468662E0,2.551498711E-1
3.211410320E0,-2.850052714E-1,-2.562740564E0,2.472086251E-1
3.213411653E0,-2.813400924E-1,-2.570070744E0,2.453760207E-1
3.215413019E0,-2.807292044E-1,-2.575568676E0,2.343804538E-1
3.217414619E0,-2.807292044E-1,-2.592672825E0,2.252174616E-1
3.219415952E0,-2.856161594E-1,-2.607333422E0,2.148327529E-1
3.221417318E0,-2.911139429E-1,-2.610998869E0,2.123892903E-1
3.223418651E0,-2.929465473E-1,-2.621383429E0,2.032263130E-1
3.225419984E0,-2.935574055E-1,-2.634822607E0,1.891764104E-1
3.227421050E0,-2.960008681E-1,-2.635433435E0,1.867329627E-1
3.229422383E0,-3.033312261E-1,-2.640931129E0,1.677961200E-1
3.231423716E0,-3.069964349E-1,-2.636044264E0,1.641309410E-1
3.233425082E0,-3.100507557E-1,-2.631767988E0,1.653526723E-1
3.235426448E0,-3.155485392E-1,-2.636655092E0,1.543571055E-1
3.237427781E0,-3.228789270E-1,-2.632378817E0,1.519136280E-1
3.239429147E0,-3.308202028E-1,-2.628103018E0,1.348094046E-1
3.241430480E0,-3.454809487E-1,-2.612831354E0,1.256464273E-1
3.243431813E0,-3.515895903E-1,-2.603057384E0,1.287007630E-1
3.245433513E0,-3.619742990E-1,-2.595726967E0,1.280898899E-1
3.247434846E0,-3.827437162E-1,-2.577401161E0,1.329768002E-1
3.249436179E0,-3.882415295E-1,-2.570681572E0,1.287007630E-1
3.251437512E0,-4.022914171E-1,-2.547468662E0,1.317550838E-1
3.253438845E0,-4.120652378E-1,-2.538305759E0,1.372528672E-1
3.255440178E0,-4.352781475E-1,-2.502264738E0,1.427506506E-1
3.257441511E0,-4.511606395E-1,-2.475386620E0,1.549679637E-1
3.259442844E0,-4.694865942E-1,-2.466223717E0,1.555788219E-1
3.261444210E0,-4.872016907E-1,-2.436902046E0,1.726830602E-1
3.263445543E0,-5.110254288E-1,-2.412467480E0,1.879546791E-1
3.265446876E0,-5.183558464E-1,-2.405748129E0,1.952850670E-1
3.267448242E0,-5.366817713E-1,-2.381313562E0,2.166653425E-1
3.269449575E0,-5.495099425E-1,-2.361154795E0,2.325478494E-1
3.271451908E0,-5.568403602E-1,-2.339774609E0,2.356021702E-1
3.273453274E0,-5.660033226E-1,-2.297624826E0,2.404890954E-1
3.275454607E0,-5.727228522E-1,-2.248755693E0,2.398782372E-1
3.277455673E0,-5.763880014E-1,-2.212714672E0,2.386564910E-1
3.279457039E0,-5.684467554E-1,-2.154071569E0,2.258283198E-1
3.281458372E0,-5.690576434E-1,-2.116808891E0,2.233848721E-1
3.283460005E0,-5.605055094E-1,-2.038007021E0,2.068915069E-1
3.285461371E0,-5.360709429E-1,-1.967146754E0,1.916198730E-1
3.287468137E0,-5.238536000E-1,-1.930494905E0,1.794025749E-1
3.289469470E0,-4.872016907E-1,-1.853525758E0,1.500810385E-1
3.291471536E0,-4.395541847E-1,-1.796104550E0,1.048770174E-1
3.293475902E0,-4.163413048E-1,-1.765561104E0,7.799893618E-2
3.295477202E0,-3.607525826E-1,-1.726465821E0,1.446895394E-2
3.297478568E0,-3.033312261E-1,-1.691035628E0,-4.661756754E-2
3.299479901E0,-2.672902048E-1,-1.683705330E0,-8.143688738E-2
3.301481234E0,-1.927646399E-1,-1.674542189E0,-1.467994750E-1
3.303482600E0,-1.603887826E-1,-1.663546801E0,-1.712340862E-1
3.305483933E0,-8.586321771E-2,-1.661714077E0,-2.139946371E-1
3.307485266E0,-4.007276148E-3,-1.656216264E0,-2.543117404E-1
3.309486632E0,3.325550631E-2,-1.652551174E0,-2.659181952E-1
3.311487965E0,1.175549105E-1,-1.649496794E0,-2.976832092E-1
3.313488965E0,1.945239305E-1,-1.643998981E0,-3.318916261E-1
3.315490331E0,2.287323773E-1,-1.642777324E0,-3.428871930E-1
3.317491664E0,3.069231212E-1,-1.637890339E0,-3.593805730E-1
3.319492997E0,3.783943653E-1,-1.622007966E0,-3.599914610E-1
3.321494563E0,4.138245583E-1,-1.618342638E0,-3.618240356E-1
3.323495896E0,4.785762727E-1,-1.602460146E0,-3.575479686E-1
3.325497229E0,5.085086823E-1,-1.579247355E0,-3.538827896E-1
3.327498562E0,5.604321957E-1,-1.560310602E0,-3.337242305E-1
3.329499895E0,6.123557687E-1,-1.519382596E0,-3.068461716E-1
3.331500261E0,6.343469024E-1,-1.490671873E0,-2.836332619E-1
3.333501594E0,6.728314161E-1,-1.430196166E0,-2.518682778E-1
3.335502927E0,7.119268179E-1,-1.366666317E0,-2.036099434E-1
3.337504293E0,7.204788923E-1,-1.328181624E0,-1.816187948E-1
3.339505626E0,7.400265932E-1,-1.259764791E0,-1.504646540E-1
3.341506959E0,7.565199733E-1,-1.190126061E0,-1.241974533E-1
3.343508025E0,7.583525181E-1,-1.152252555E0,-1.113692820E-1
3.345509358E0,7.614068389E-1,-1.077116132E0,-9.304332733E-2
3.349506924E0,7.589634657E-1,-9.726581573E-1,-6.799785793E-2
3.351507557E0,7.455243468E-1,-9.060738087E-1,-5.455881730E-2
3.355507223E0,7.217006087E-1,-7.997832894E-1,-3.928718716E-2
3.357508556E0,7.045964599E-1,-7.319772243E-1,-3.012420796E-2
3.359509889E0,6.917682290E-1,-7.044882774E-1,-3.134594113E-2
3.361511255E0,6.673336029E-1,-6.409583092E-1,-3.195680305E-2
3.363512588E0,6.447316408E-1,-5.884239078E-1,-3.989805281E-2
3.365513921E0,6.294599771E-1,-5.548263192E-1,-4.050891846E-2
3.367515287E0,5.964732766E-1,-4.967941046E-1,-4.234151542E-2
3.369516620E0,5.738711953E-1,-4.418162107E-1,-4.661756754E-2
3.371517953E0,5.579887629E-1,-4.082186222E-1,-4.722843692E-2
3.373519653E0,5.317215323E-1,-3.428560495E-1,-4.417410865E-2
3.375520986E0,5.176716447E-1,-3.135345280E-1,-4.783930257E-2
3.377522319E0,4.920153022E-1,-2.390089780E-1,-4.783930257E-2
3.379523685E0,4.651372433E-1,-1.730355173E-1,-5.150449276E-2
3.381524785E0,4.547525346E-1,-1.400488019E-1,-5.394795164E-2
3.383526118E0,4.303179085E-1,-5.941458419E-2,-5.822401121E-2
3.385527484E0,4.071050286E-1,2.121962607E-2,-6.494352967E-2
3.387528817E0,3.906116784E-1,6.092586368E-2,-7.838255912E-2
3.389530150E0,3.698422611E-1,1.433926672E-1,-8.388034999E-2
3.391531483E0,3.423533440E-1,2.166965008E-1,-8.632381260E-2
3.393532816E0,3.295251429E-1,2.533484101E-1,-9.487592429E-2
3.395534149E0,3.026470542E-1,3.278740048E-1,-1.034280360E-1
3.397535482E0,2.800450623E-1,4.023995399E-1,-1.193105280E-1
3.399536815E0,2.678277493E-1,4.445492625E-1,-1.229757220E-1
3.401538181E0,2.433931381E-1,5.245725513E-1,-1.376364827E-1
3.403539514E0,2.250671834E-1,5.600027442E-1,-1.467994750E-1
3.405540847E0,1.933021992E-1,6.296414137E-1,-1.608493626E-1
3.407542213E0,1.639806628E-1,7.011126876E-1,-1.626819670E-1
3.409543546E0,1.487090290E-1,7.304341793E-1,-1.663471460E-1
3.411544879E0,1.175549105E-1,7.927424312E-1,-1.639036983E-1
3.413545912E0,8.640077710E-2,8.526072502E-1,-1.577950418E-1
3.415547245E0,6.868569553E-2,8.819288015E-1,-1.565733254E-1
3.417548578E0,3.569896147E-2,9.362957478E-1,-1.510755271E-1
3.419549611E0,-2.785545541E-3,9.882193208E-1,-1.388582140E-1
3.421550944E0,-2.477669530E-2,1.010821342E0,-1.327495724E-1
3.423552277E0,-5.104389787E-2,1.052971125E0,-1.284735054E-1
3.425556943E0,-8.586321771E-2,1.095731616E0,-1.296952367E-1
3.427558276E0,-9.991311282E-2,1.114668489E0,-1.235865951E-1
3.429559609E0,-1.322889775E-1,1.143990040E0,-1.168670729E-1
3.431560975E0,-1.457280070E-1,1.162315965E0,-1.125910208E-1
3.433562308E0,-1.652756929E-1,1.187361360E0,-1.132018790E-1
3.435563641E0,-1.872668415E-1,1.213017702E0,-1.260300577E-1
3.437565007E0,-1.921537817E-1,1.224013329E0,-1.290843785E-1
3.439566340E0,-2.135340571E-1,1.238063216E0,-1.351930201E-1
3.441567673E0,-2.288056761E-1,1.250891328E0,-1.437451541E-1
3.443569039E0,-2.343034595E-1,1.253945708E0,-1.504646540E-1
3.445570305E0,-2.446881831E-1,1.230732799E0,-1.626819670E-1
3.447571605E0,-2.440773100E-1,1.192859173E0,-1.748992801E-1
3.449572971E0,-2.477425039E-1,1.167202830E0,-1.877274513E-1
3.451574304E0,-2.385795265E-1,1.151320338E0,-2.066642642E-1
3.453575637E0,-2.446881831E-1,1.141546488E0,-2.091077268E-1
3.455577103E0,-2.361360639E-1,1.112835765E0,-2.335423231E-1
3.457578436E0,-2.379686534E-1,1.105505466E0,-2.488139719E-1
3.459579769E0,-2.330817431E-1,1.103062034E0,-2.616421580E-1
3.461581102E0,-2.312491387E-1,1.090844750E0,-2.732485533E-1
3.463582435E0,-2.361360639E-1,1.037088513E0,-2.940180004E-1
3.465583768E0,-2.355252057E-1,1.009599566E0,-3.099004924E-1
3.467585101E0,-2.398012578E-1,9.931061864E-1,-3.386111557E-1
3.469586434E0,-2.373578101E-1,9.949388504E-1,-3.630457819E-1
3.471588134E0,-2.410229892E-1,9.986039996E-1,-3.752630651E-1
3.473589800E0,-2.324708700E-1,9.943279624E-1,-4.021411538E-1
3.475591133E0,-2.269730866E-1,9.906627536E-1,-4.137475789E-1
3.477592499E0,-2.239187658E-1,9.711151123E-1,-4.326844215E-1
3.479594165E0,-2.110905945E-1,9.307979941E-1,-4.449017048E-1
3.481595498E0,-1.982624233E-1,9.069742560E-1,-4.491777718E-1
3.483596864E0,-1.811581999E-1,8.788744211E-1,-4.540646970E-1
3.487596230E0,-1.310672462E-1,8.471094370E-1,-4.638385177E-1
3.489598296E0,-9.685879201E-2,8.318378329E-1,-4.638385177E-1
3.491599629E0,-6.326120347E-2,8.391681910E-1,-4.632276595E-1
3.493600962E0,-4.188092053E-2,8.446659446E-1,-4.638385177E-1
3.495602328E0,-1.072679367E-2,8.629919291E-1,-4.571190178E-1
3.497603661E0,8.820894174E-3,8.825396299E-1,-4.540646970E-1
3.499604994E0,4.364021122E-2,9.020872712E-1,-4.467343092E-1
3.501606360E0,7.662694156E-2,9.307979941E-1,-4.363496006E-1
3.503607693E0,9.189856797E-2,9.399609566E-1,-4.320735335E-1
3.505609093E0,1.254961491E-1,9.766128659E-1,-4.198562205E-1
3.507610493E0,1.566502899E-1,1.006545305E0,-4.045845866E-1
3.509611826E0,1.707001776E-1,1.018762589E0,-3.960325122E-1
3.511613159E0,1.939130723E-1,1.048694968E0,-3.801499903E-1
3.513614525E0,2.201802731E-1,1.085346937E0,-3.606022894E-1
3.515615758E0,2.299541235E-1,1.106116295E0,-3.575479686E-1
3.517617091E0,2.617191076E-1,1.143378973E0,-3.398328722E-1
3.519618457E0,2.898189127E-1,1.180641890E0,-3.270047307E-1
3.521619790E0,3.057014048E-1,1.193470001E0,-3.172308803E-1
3.523621123E0,3.374663889E-1,1.233176231E0,-3.001266420E-1
3.525622489E0,3.472402394E-1,1.249058723E0,-2.970723212E-1
3.527623822E0,3.857247531E-1,1.279602051E0,-2.756920457E-1
3.529625155E0,4.174897373E-1,1.307701826E0,-2.598095536E-1
3.531626155E0,4.345939755E-1,1.318086505E0,-2.543117404E-1
3.533627488E0,4.743002057E-1,1.332747340E0,-2.353749275E-1
3.535628821E0,5.078977942E-1,1.332747340E0,-2.268228084E-1
3.537630154E0,5.225585699E-1,1.338245153E0,-2.188815773E-1
3.539631487E0,5.543235540E-1,1.338855982E0,-2.097185999E-1
3.541632853E0,5.897537470E-1,1.326027870E0,-2.023882121E-1
3.543634186E0,6.013601422E-1,1.324195147E0,-1.975012869E-1
3.545635519E0,6.215187311E-1,1.305258393E0,-1.889491677E-1
3.547636885E0,6.312925816E-1,1.289375901E0,-1.858948469E-1
3.549637518E0,6.490076780E-1,1.260665178E0,-1.791753173E-1
3.551638851E0,6.569489241E-1,1.227067590E0,-1.706232131E-1
3.553640217E0,6.606141329E-1,1.212406874E0,-1.608493626E-1
3.555641550E0,6.655010581E-1,1.176976681E0,-1.474103332E-1
3.557648416E0,6.496185064E-1,1.144600868E0,-1.333604306E-1
3.559649782E0,6.428990364E-1,1.129940033E0,-1.248083189E-1
3.561651115E0,6.209079027E-1,1.117111802E0,-1.040389016E-1
3.563652148E0,5.934189558E-1,1.102451086E0,-7.960429043E-2
3.565653514E0,5.726495385E-1,1.093288064E0,-7.044131309E-2
3.567654847E0,5.359976292E-1,1.063355684E0,-5.578054860E-2
3.569656180E0,4.993456602E-1,1.045640588E0,-3.867632151E-2
3.571657546E0,4.761328101E-1,1.030979872E0,-2.890247665E-2
3.573658879E0,4.309287667E-1,1.007156134E0,-1.607430913E-2
3.575660212E0,4.095484912E-1,9.973822832E-1,4.190535401E-4
3.577661578E0,3.588466942E-1,9.680607319E-1,1.996674202E-2
3.579662911E0,3.142535090E-1,9.344632030E-1,4.440135136E-2
3.581664244E0,2.922623456E-1,9.204132557E-1,6.028384715E-2
3.583665610E0,2.647734284E-1,8.868156672E-1,8.288586140E-2
3.585666943E0,2.378953546E-1,8.544397950E-1,1.122073904E-1
3.587668276E0,2.287323773E-1,8.336704373E-1,1.293116212E-1
3.589669642E0,2.140716165E-1,7.939641476E-1,1.543571055E-1
3.591670975E0,1.994108558E-1,7.512035966E-1,1.867329627E-1
3.593672308E0,1.987999827E-1,7.328776121E-1,1.995611340E-1
3.595673674E0,1.969673932E-1,6.815649271E-1,2.191088051E-1
3.597675007E0,1.908587366E-1,6.638498306E-1,2.288826555E-1
3.599676340E0,1.816957593E-1,6.253653765E-1,2.490412146E-1
3.601677673E0,1.731436402E-1,5.917677879E-1,2.606476545E-1
3.603679006E0,1.621480733E-1,5.783287287E-1,2.655345798E-1
3.605680339E0,1.401569247E-1,5.545049906E-1,2.655345798E-1
3.607682872E0,1.126679853E-1,5.367898941E-1,2.569824457E-1
3.609684205E0,9.678549320E-2,5.319029689E-1,2.551498711E-1
3.611685571E0,6.135530397E-2,5.233508348E-1,2.533172667E-1
3.613686904E0,2.470339090E-2,5.270160437E-1,2.478194684E-1
3.615688237E0,1.490511233E-3,5.355681777E-1,2.465977520E-1
3.619685403E0,-8.830668032E-2,5.343464613E-1,2.221631259E-1
3.621686736E0,-1.115195602E-1,5.270160437E-1,2.154436260E-1
3.623688402E0,-1.506149322E-1,4.989162683E-1,2.056697756E-1
3.625689735E0,-1.726060808E-1,4.805903137E-1,2.032263130E-1
3.627691068E0,-2.147557884E-1,4.311102033E-1,1.842894852E-1
3.629692434E0,-2.477425039E-1,3.767431974E-1,1.653526723E-1
3.631693767E0,-2.636249959E-1,3.419238925E-1,1.561896950E-1
3.633695100E0,-2.862270176E-1,2.686200440E-1,1.372528672E-1
3.635696133E0,-3.124942183E-1,1.898184419E-1,1.195377707E-1
3.637697466E0,-3.228789270E-1,1.531665176E-1,1.103747934E-1
3.639698799E0,-3.412048817E-1,7.131057978E-2,9.449230134E-2
3.641700165E0,-3.497570157E-1,2.893668599E-3,7.677720487E-2
3.643701498E0,-3.576982319E-1,-3.314737976E-2,6.578163058E-2
3.645702831E0,-3.650286198E-1,-9.789909422E-2,5.722952262E-2
3.647704197E0,-3.717481494E-1,-1.241663024E-1,5.539692566E-2
3.649705530E0,-3.864088953E-1,-1.773115844E-1,4.256875440E-2
3.651706863E0,-3.888523877E-1,-2.237373292E-1,3.462750465E-2
3.653708229E0,-3.894632459E-1,-2.469502091E-1,3.157318011E-2
3.655709562E0,-3.912958503E-1,-2.787152231E-1,3.523837402E-2
3.657710895E0,-3.974044919E-1,-3.000954986E-1,2.974058501E-2
3.659712428E0,-3.949610293E-1,-3.086476028E-1,2.974058501E-2
3.661714461E0,-3.998479545E-1,-3.263626993E-1,2.851885371E-2
3.663715794E0,-4.004588425E-1,-3.459104002E-1,2.302106842E-2
3.665717160E0,-3.980153501E-1,-3.611820042E-1,2.546452917E-2
3.667717293E0,-3.992370963E-1,-3.880600929E-1,2.118847333E-2
3.669718626E0,-3.919067085E-1,-4.253228903E-1,1.813414507E-2
3.671719959E0,-3.870197833E-1,-4.570878744E-1,1.507981960E-2
3.673721292E0,-3.717481494E-1,-5.071787834E-1,1.202549320E-2
3.675722625E0,-3.631960452E-1,-5.493285060E-1,5.916840397E-3
3.677723958E0,-3.467026651E-1,-6.159128547E-1,-6.300464272E-3
3.679725291E0,-3.228789270E-1,-7.063208818E-1,-1.424171217E-2
3.681726657E0,-3.118833601E-1,-7.478597164E-1,-1.668517292E-2
3.683727990E0,-2.795075178E-1,-8.388786912E-1,-3.256766871E-2
3.685729323E0,-2.520185709E-1,-9.457800388E-1,-4.539583996E-2
3.687730689E0,-2.391903996E-1,-9.952601194E-1,-4.783930257E-2
3.689732022E0,-2.129231840E-1,-1.094220281E0,-5.578054860E-2
3.691733355E0,-1.866559833E-1,-1.187682748E0,-6.494352967E-2
3.693734721E0,-1.774930060E-1,-1.231665015E0,-6.555438787E-2
3.695736387E0,-1.542801261E-1,-1.325127363E0,-6.738698483E-2
3.697737720E0,-1.500040740E-1,-1.366055250E0,-6.188920140E-2
3.699739086E0,-1.426736861E-1,-1.434472322E0,-6.372179836E-2
3.701740419E0,-1.420628130E-1,-1.494947910E0,-5.516968668E-2
3.703741752E0,-1.438954175E-1,-1.529767156E0,-4.845016450E-2
3.705743118E0,-1.475606114E-1,-1.593297243E0,-4.295237735E-2
3.707744384E0,-1.561127156E-1,-1.655605435E0,-3.256766871E-2
3.709745650E0,-1.561127156E-1,-1.685537815E0,-2.462642081E-2
3.711746683E0,-1.634431034E-1,-1.741737485E0,-1.973949932E-2
3.713748016E0,-1.695517600E-1,-1.800991416E0,-2.635272685E-3
3.715749349E0,-1.695517600E-1,-1.821149945E0,4.190535401E-4
3.717750715E0,-1.738278270E-1,-1.865132213E0,7.749436423E-3
3.719751881E0,-1.677191556E-1,-1.887123466E0,1.752328128E-2
3.721752514E0,-1.634431034E-1,-1.925607920E0,3.584923968E-2
3.723753880E0,-1.555018574E-1,-1.965314150E0,5.417519435E-2
3.725755213E0,-1.536692679E-1,-1.979974985E0,6.517077237E-2
3.727756546E0,-1.402302235E-1,-2.017848492E0,9.999009222E-2
3.729757912E0,-1.145738810E-1,-2.061219931E0,1.360311359E-1
3.731759245E0,-1.017457098E-1,-2.086876154E0,1.506919116E-1
3.733760578E0,-6.936985999E-2,-2.146130323E0,1.781808436E-1
3.735761944E0,-3.699399903E-2,-2.216990709E0,2.148327529E-1
3.737765544E0,-1.805717684E-2,-2.260972977E0,2.386564910E-1
3.739766877E0,2.348166145E-2,-2.349548340E0,2.771410346E-1
3.741768210E0,7.051828504E-2,-2.457060814E0,3.180689812E-1
3.743769543E0,9.495289624E-2,-2.507762432E0,3.376166821E-1
3.745770876E0,1.413786411E-1,-2.617718220E0,3.699925244E-1
3.747772209E0,1.645915359E-1,-2.676972151E0,3.809880912E-1
3.749773542E0,2.085738182E-1,-2.788760424E0,3.950380087E-1
3.751775608E0,2.611082494E-1,-2.924372673E0,3.968706131E-1
3.753776941E0,2.910406590E-1,-3.001952410E0,3.974814713E-1
3.755779607E0,3.429641724E-1,-3.156501532E0,4.084770381E-1
3.757780973E0,4.034398496E-1,-3.325711012E0,4.219160676E-1
3.759782306E0,4.345939755E-1,-3.403290987E0,4.280247092E-1
3.761783639E0,4.944587648E-1,-3.566391945E0,4.494049847E-1
3.763785005E0,5.518801212E-1,-3.705058336E0,4.658983648E-1
3.765786605E0,5.818125010E-1,-3.783249140E0,4.701744318E-1
3.767788005E0,6.367903352E-1,-3.928024054E0,4.854460359E-1
3.769790505E0,6.600032449E-1,-4.089292526E0,4.958307743E-1
3.771792171E0,7.131484747E-1,-4.179090023E0,4.988850951E-1
3.773793504E0,7.669046521E-1,-4.360516548E0,5.068263412E-1
3.775794870E0,8.023348451E-1,-4.438707352E0,4.994959831E-1
3.777796203E0,8.591453433E-1,-4.598143578E0,5.062155128E-1
3.779797536E0,9.129014015E-1,-4.738031864E0,5.257631540E-1
3.781798902E0,9.367251992E-1,-4.798507214E0,5.404239297E-1
3.783800235E0,9.813183546E-1,-4.906019688E0,5.697454810E-1
3.785801568E0,1.022246361E0,-5.006201267E0,5.972343683E-1
3.787802934E0,1.034463644E0,-5.047740459E0,6.021213531E-1
3.789804267E0,1.047291875E0,-5.113102436E0,6.149494648E-1
3.791805600E0,1.057065725E0,-5.174189568E0,6.357189417E-1
3.793806966E0,1.055843830E0,-5.209619522E0,6.516013741E-1
3.795808299E0,1.041794062E0,-5.267041206E0,6.821446419E-1
3.799808731E0,9.929248095E-1,-5.326905727E0,7.041357756E-1
3.801810064E0,9.611597657E-1,-5.363557816E0,7.242943645E-1
3.803816864E0,9.385578036E-1,-5.383104801E0,7.328464985E-1
3.805818230E0,8.933537602E-1,-5.407539845E0,7.395659685E-1
3.807819563E0,8.432627916E-1,-5.407539845E0,7.365116477E-1
3.809820896E0,8.157738447E-1,-5.414870262E0,7.334573269E-1
3.811821529E0,7.546873689E-1,-5.419757366E0,7.218508720E-1
3.813822862E0,6.942116618E-1,-5.397155285E0,7.200183272E-1
3.815822862E0,6.600032449E-1,-5.384937763E0,7.200183272E-1
3.817824195E0,6.251838803E-1,-5.410594463E0,7.279595137E-1
3.819825528E0,6.178535223E-1,-5.435029030E0,7.389551401E-1
3.821826861E0,5.940297842E-1,-5.460074425E0,7.499507070E-1
3.823828194E0,5.659300089E-1,-5.452743530E0,7.542267442E-1
3.825829260E0,5.506584048E-1,-5.439304829E0,7.640005946E-1
3.827830626E0,5.427170992E-1,-5.406317711E0,7.823265195E-1
3.829830892E0,5.695952177E-1,-5.356226921E0,7.975981832E-1
3.831832225E0,5.842559934E-1,-5.331181526E0,8.037068248E-1
3.833833591E0,6.471750736E-1,-5.272538662E0,8.159241080E-1
3.835834924E0,7.241441011E-1,-5.180908680E0,8.232545257E-1
3.837836257E0,7.669046521E-1,-5.128985405E0,8.208110929E-1
3.839837623E0,8.493714333E-1,-5.014142513E0,8.116480708E-1
3.841838956E0,8.988515735E-1,-4.960386276E0,8.006525040E-1
3.843840289E0,9.996443391E-1,-4.858983040E0,7.859917879E-1
3.845841655E0,1.108378291E0,-4.774072647E0,7.646114230E-1
3.847842988E0,1.160912752E0,-4.721538067E0,7.548376322E-1
3.849844321E0,1.250710011E0,-4.615858555E0,7.395659685E-1
3.851845687E0,1.306909561E0,-4.498572350E0,7.181857228E-1
3.853847020E0,1.324013829E0,-4.418549061E0,7.023032308E-1
3.855848353E0,1.332565904E0,-4.246895790E0,6.821446419E-1
3.857849719E0,1.320348620E0,-4.056916714E0,6.662621498E-1
3.859851052E0,1.302633405E0,-3.956734896E0,6.650404930E-1
3.861852385E0,1.233605742E0,-3.732547283E0,6.613752246E-1
3.865849618E0,1.092495799E0,-3.377023697E0,6.473253965E-1
3.867850951E0,9.623815417E-1,-3.138786316E0,6.363297701E-1
3.869859084E0,8.206608295E-1,-2.887720585E0,6.143386364E-1
3.871860417E0,7.479678392E-1,-2.769212961E0,6.076191068E-1
3.873861717E0,5.983058214E-1,-2.505319118E0,5.813519359E-1
3.875863083E0,5.195041895E-1,-2.379480600E0,5.691345930E-1
3.877864416E0,3.637336195E-1,-2.139410734E0,5.465325713E-1
3.879865749E0,2.403388172E-1,-1.928662181E0,5.337044001E-1
3.881873682E0,1.560394168E-1,-1.810154438E0,5.275957584E-1
3.883875015E0,3.386636823E-2,-1.620175242E0,5.178219080E-1
3.885876348E0,-7.853283733E-2,-1.446689606E0,5.056046247E-1
3.887877681E0,-1.292346567E-1,-1.365444422E0,4.988850951E-1
3.889879014E0,-2.239187658E-1,-1.235330224E0,4.878895283E-1
3.891880347E0,-2.636249959E-1,-1.168745875E0,4.860569239E-1
3.893881947E0,-3.503678441E-1,-1.071007490E0,4.878895283E-1
3.895883280E0,-4.377215803E-1,-1.041685939E0,4.762830734E-1
3.897884646E0,-4.755952358E-1,-1.038631558E0,4.720070064E-1
3.899885979E0,-5.556185842E-1,-1.031301141E0,4.622331858E-1
3.901887312E0,-6.118181944E-1,-1.005033970E0,4.439072311E-1
3.903888678E0,-6.356419921E-1,-9.885406494E-1,4.390203059E-1
3.905890011E0,-6.808459759E-1,-9.335627556E-1,4.213052094E-1
3.907891344E0,-7.254391313E-1,-8.816392422E-1,3.938162923E-1
3.909892710E0,-7.523171902E-1,-8.590371609E-1,3.754903376E-1
3.911894043E0,-8.024081588E-1,-8.174983263E-1,3.357840776E-1
3.913895376E0,-8.561643362E-1,-7.839007378E-1,2.972995639E-1
3.915896742E0,-8.812097907E-1,-7.521358132E-1,2.753084004E-1
3.917898075E0,-9.319115877E-1,-7.258685827E-1,2.197196782E-1
3.919899408E0,-9.539027214E-1,-7.130404115E-1,1.879546791E-1
3.921900774E0,-1.002161026E0,-6.629494429E-1,1.317550838E-1
3.923901774E0,-1.047365069E0,-6.153019667E-1,7.677720487E-2
3.925903274E0,-1.058971524E0,-5.896456242E-1,4.928827286E-2
3.927904640E0,-1.071799636E0,-5.536045432E-1,9.582032450E-3
3.931900206E0,-1.078519344E0,-4.790790081E-1,-5.578054860E-2
3.933901606E0,-1.068745375E0,-4.247120023E-1,-8.021515608E-2
3.935902939E0,-1.028428316E0,-3.703449965E-1,-8.265862614E-2
3.937904272E0,-1.005826235E0,-3.214757740E-1,-8.693467826E-2
3.939905638E0,-9.655091763E-1,-2.212938666E-1,-1.028171703E-1
3.943902437E0,-9.050335288E-1,-7.102102786E-2,-1.284735054E-1
3.945903803E0,-8.830423355E-1,8.391455747E-3,-1.522972584E-1
3.947905136E0,-8.665490150E-1,4.809769988E-2,-1.681797504E-1
3.949906469E0,-8.598294854E-1,1.415600777E-1,-2.097185999E-1
3.951907835E0,-8.573860526E-1,2.368550599E-1,-2.598095536E-1
3.953908901E0,-8.592186570E-1,2.924437821E-1,-2.830224335E-1
3.955910234E0,-8.561643362E-1,3.767431974E-1,-3.099004924E-1
3.957911567E0,-8.433361053E-1,4.421057701E-1,-3.361676931E-1
3.959912900E0,-8.360057473E-1,4.891423881E-1,-3.532719016E-1
3.961914233E0,-8.298971057E-1,5.789395571E-1,-3.844260573E-1
3.963915566E0,-8.182906508E-1,6.436913013E-1,-3.990868330E-1
3.965916899E0,-8.182906508E-1,6.675150990E-1,-4.247431755E-1
3.967918265E0,-8.176798224E-1,7.090538740E-1,-4.552864134E-1
3.969919598E0,-8.195123672E-1,7.316558957E-1,-4.748341143E-1
3.971920931E0,-8.268427849E-1,7.725838423E-1,-4.992687106E-1
3.973922297E0,-8.219558001E-1,8.171770573E-1,-5.096533895E-1
3.975923630E0,-8.127928376E-1,8.312269449E-1,-5.004904270E-1
3.977924963E0,-7.901908755E-1,8.422225118E-1,-4.858296812E-1
3.979926329E0,-7.474303246E-1,8.477202654E-1,-4.461234510E-1
3.981927662E0,-7.248282433E-1,8.489420414E-1,-4.308518171E-1
3.983929328E0,-6.973393559E-1,8.813178539E-1,-4.045845866E-1
3.985930528E0,-6.692395210E-1,9.130828977E-1,-3.783174157E-1
3.987931861E0,-6.496918201E-1,9.130828977E-1,-3.538827896E-1
3.989933194E0,-5.898270011E-1,8.923134804E-1,-3.007375300E-1
3.991934894E0,-5.568403602E-1,8.599376082E-1,-2.695833743E-1
3.993936227E0,-4.951429367E-1,8.031271100E-1,-2.139946371E-1
3.995937560E0,-4.505497813E-1,7.371537089E-1,-1.639036983E-1
3.997938660E0,-4.267260134E-1,7.023343444E-1,-1.400799602E-1
3.999939993E0,-3.894632459E-1,6.192567348E-1,-9.182160348E-2
4.001941326E0,-3.589199781E-1,5.349572897E-1,-4.661756754E-2
4.003949192E0,-3.454809487E-1,4.866989553E-1,-2.768074721E-2
4.005950525E0,-3.271549940E-1,3.889605105E-1,1.996674202E-2
4.007951858E0,-3.234898150E-1,2.979415953E-1,5.722952262E-2
4.009953224E0,-3.204354942E-1,2.460180372E-1,7.555548102E-2
4.011959724E0,-3.094398975E-1,1.262884438E-1,1.122073904E-1
4.013961057E0,-3.106616139E-1,7.436490059E-2,1.317550838E-1
4.015962423E0,-3.253223896E-1,-1.482142322E-2,1.659635305E-1
4.017963756E0,-3.491461575E-1,-9.484477341E-2,1.897872835E-1
4.019964756E0,-3.662503660E-1,-1.284423470E-1,1.946741939E-1
4.021966122E0,-4.016805291E-1,-2.078548372E-1,2.099458277E-1
4.023967455E0,-4.371107519E-1,-2.842129767E-1,2.099458277E-1
4.025968788E0,-4.523823559E-1,-3.300278783E-1,2.111675590E-1
4.027970121E0,-4.926994741E-1,-3.990556598E-1,2.020045817E-1
4.029971454E0,-5.244644880E-1,-4.564769864E-1,1.849003583E-1
4.031972787E0,-5.458447337E-1,-4.827441871E-1,1.726830602E-1
4.033976520E0,-5.837183595E-1,-5.505502224E-1,1.537462324E-1
4.035977853E0,-6.069312692E-1,-6.091933250E-1,1.317550838E-1
4.037979219E0,-6.130399108E-1,-6.476777792E-1,1.158725843E-1
4.039980552E0,-6.319767237E-1,-7.148729563E-1,9.021624923E-2
4.041981885E0,-6.356419921E-1,-7.539683580E-1,7.738807797E-2
4.043983251E0,-6.405288577E-1,-8.071136475E-1,5.478606001E-2
4.045984584E0,-6.319767237E-1,-8.578155041E-1,3.951442987E-2
4.047985917E0,-6.215920448E-1,-8.987433910E-1,2.485366166E-2
4.049987283E0,-5.996009111E-1,-9.561647773E-1,8.971166797E-3
4.051988616E0,-5.666142106E-1,-1.034355521E0,1.029918785E-3
4.053989949E0,-5.482882261E-1,-1.063066125E0,-2.024407499E-3
4.055991315E0,-5.067493320E-1,-1.119265795E0,-8.026768919E-4
4.057992915E0,-4.536041021E-1,-1.166302323E0,1.080376282E-2
4.059994248E0,-4.242825508E-1,-1.191958785E0,1.569068432E-2
4.061995614E0,-3.662503660E-1,-1.212728143E0,3.035145067E-2
4.065991080E0,-2.581272423E-1,-1.215782523E0,8.166413009E-2
4.067992446E0,-1.897103190E-1,-1.193180561E0,1.256464273E-1
4.069993779E0,-1.506149322E-1,-1.187071800E0,1.531353593E-1
4.073991311E0,1.490511233E-3,-1.135148287E0,2.478194684E-1
4.075992644E0,3.936415538E-2,-1.120487571E0,2.691997588E-1
4.077994677E0,1.297722161E-1,-1.103994131E0,3.205124438E-1
4.079996377E0,2.159042060E-1,-1.095442057E0,3.767120242E-1
4.081997710E0,2.586647570E-1,-1.091166019E0,4.048118591E-1
4.083999043E0,3.435750306E-1,-1.097885489E0,4.707852900E-1
4.086000409E0,4.199331999E-1,-1.102772474E0,5.355370045E-1
4.088001742E0,4.590286016E-1,-1.101550698E0,5.660802722E-1
4.090003075E0,5.274454951E-1,-1.107659340E0,6.363297701E-1
4.092004441E0,5.518801212E-1,-1.112546206E0,6.674838662E-1
4.096004707E0,6.319034696E-1,-1.125374436E0,7.737745047E-1
4.098006040E0,6.459533572E-1,-1.133315682E0,8.049286008E-1
4.100007373E0,6.667227745E-1,-1.154695868E0,8.544086814E-1
4.102008706E0,6.868813038E-1,-1.190737009E0,9.051104784E-1
4.104010039E0,6.929900050E-1,-1.218836784E0,9.350429177E-1
4.106011372E0,6.978768706E-1,-1.277479887E0,1.008346677E0
4.108012738E0,6.868813038E-1,-1.347118497E0,1.096311331E0
4.110014071E0,6.795508862E-1,-1.382548690E0,1.141515374E0
4.112015404E0,6.545054317E-1,-1.455241680E0,1.222149491E0
4.114016770E0,6.398446560E-1,-1.489450097E0,1.257579684E0
4.116018103E0,6.086905599E-1,-1.562753916E0,1.330272675E0
4.118019436E0,5.763146877E-1,-1.647664189E0,1.390137434E0
4.120020802E0,5.598213673E-1,-1.685537815E0,1.418848157E0
4.122022135E0,5.256128907E-1,-1.767393827E0,1.454889178E0
4.124023468E0,4.871283770E-1,-1.838254094E0,1.475047708E0
4.126024834E0,4.755219519E-1,-1.878571272E0,1.473215222E0
4.128026167E0,4.510873556E-1,-1.956762075E0,1.453056693E0
4.130031100E0,4.242092669E-1,-2.040450573E0,1.413350344E0
4.132032466E0,4.095484912E-1,-2.077713490E0,1.395024419E0
4.134033799E0,3.777835071E-1,-2.162623644E0,1.338824868E0
4.136035132E0,3.502945602E-1,-2.249977350E0,1.311946750E0
4.138036498E0,3.338012099E-1,-2.291516066E0,1.251471043E0
4.140037531E0,2.928732336E-1,-2.362376451E0,1.162895679E0
4.142038864E0,2.647734284E-1,-2.395974159E0,1.102419972E0
4.144040230E0,2.061303705E-1,-2.468056202E0,9.942967892E-1
4.146041563E0,1.395460516E-1,-2.537694931E0,9.063321948E-1
4.148042896E0,9.983981401E-2,-2.552966595E0,8.623499274E-1
4.150044262E0,2.775771730E-2,-2.573735952E0,7.866026163E-1
4.152045595E0,-4.982217029E-2,-2.611609697E0,6.998597383E-1
4.154046928E0,-7.975456864E-2,-2.631157160E0,6.729816794E-1
4.156048294E0,-1.451171488E-1,-2.659868002E0,6.351080537E-1
4.158049627E0,-1.933754981E-1,-2.675139666E0,5.856279135E-1
4.160050960E0,-2.178101093E-1,-2.679415464E0,5.660802722E-1
4.162052326E0,-2.581272423E-1,-2.658646345E0,4.970524907E-1
4.164053659E0,-2.703445256E-1,-2.654980898E0,4.738396406E-1
4.166054992E0,-2.795075178E-1,-2.670252800E0,4.469615519E-1
4.168056325E0,-2.825618386E-1,-2.691021919E0,3.968706131E-1
4.170057658E0,-2.807292044E-1,-2.686135292E0,3.785446584E-1
4.172058991E0,-2.593489289E-1,-2.645818233E0,3.516665697E-1
4.174060324E0,-2.275839597E-1,-2.573735952E0,3.296754062E-1
4.176061657E0,-2.037602067E-1,-2.522423267E0,3.119603395E-1
4.178063023E0,-1.524475217E-1,-2.404526472E0,2.979104221E-1
4.180064356E0,-1.023565829E-1,-2.304344416E0,2.795844674E-1
4.182065689E0,-6.998071820E-2,-2.249977350E0,2.753084004E-1
4.184067055E0,6.988298614E-3,-2.137578011E0,3.015756309E-1
4.186068388E0,4.852713272E-2,-2.071604729E0,3.168472648E-1
4.188069721E0,1.377134621E-1,-1.945155621E0,3.382275403E-1
4.192068820E0,2.879863083E-1,-1.789384961E0,3.443361819E-1
4.194070153E0,3.918333948E-1,-1.720968008E0,3.253993392E-1
4.196071519E0,4.901826978E-1,-1.686759591E0,3.052408099E-1
4.198072152E0,5.329433084E-1,-1.697144270E0,2.954669893E-1
4.200073785E0,6.056362391E-1,-1.758841634E0,2.771410346E-1
4.202075151E0,6.709988117E-1,-1.890177727E0,2.600367665E-1
4.204076484E0,6.917682290E-1,-1.973866224E0,2.465977520E-1
4.206077817E0,7.400265932E-1,-2.164456367E0,2.239957303E-1
4.208079183E0,7.809545994E-1,-2.366041660E0,1.903981417E-1
4.210080516E0,7.980587482E-1,-2.459504128E0,1.745156497E-1
4.212081849E0,8.432627916E-1,-2.632378817E0,1.458049715E-1
4.214083215E0,8.683083057E-1,-2.734393597E0,1.323659569E-1
4.216084548E0,9.330599904E-1,-2.901770592E0,1.036552787E-1
4.218085881E0,1.036296248E0,-3.027608871E0,4.012529552E-2
4.220088014E0,1.096771836E0,-3.074645519E0,1.029918785E-3
4.222089347E0,1.234216571E0,-3.132677794E0,-8.571294695E-2
4.224090680E0,1.402204514E0,-3.171772957E0,-1.706232131E-1
4.226091713E0,1.492001653E0,-3.185822964E0,-2.176598310E-1
4.228093746E0,1.680759072E0,-3.180325270E0,-3.062352836E-1
4.230095079E0,1.867072940E0,-3.148560047E0,-3.887021244E-1
4.232096445E0,1.959313631E0,-3.114351511E0,-4.363496006E-1
4.234097778E0,2.127912283E0,-3.019667387E0,-5.316445827E-1
4.236099111E0,2.201216221E0,-2.955526590E0,-5.854007006E-1
4.238100444E0,2.338660955E0,-2.830910206E0,-6.953564286E-1
4.240101777E0,2.450449228E0,-2.719732761E0,-7.992035747E-1
4.242103110E0,2.501151085E0,-2.681248188E0,-8.462401628E-1
4.244104443E0,2.579952717E0,-2.684913397E0,-9.427568913E-1
4.246105776E0,2.613550186E0,-2.632989645E0,-1.027667165E0
4.248107142E0,2.617826462E0,-2.579844475E0,-1.064929962E0
4.250108475E0,2.603776455E0,-2.449730158E0,-1.122962117E0
4.252109808E0,2.561015844E0,-2.302511692E0,-1.163279295E0
4.254111174E0,2.547576904E0,-2.260362148E0,-1.174885631E0
4.256112507E0,2.509703159E0,-2.209660053E0,-1.187713861E0
4.258113840E0,2.415629864E0,-2.196221113E0,-1.180383444E0
4.260115206E0,2.348434925E0,-2.182782173E0,-1.159003139E0
4.262116539E0,2.213433504E0,-2.179116964E0,-1.143731594E0
4.264117872E0,2.122414589E0,-2.171786547E0,-1.130292535E0
4.266119238E0,1.935489893E0,-2.187058449E0,-1.086310148E0
4.268120571E0,1.747954249E0,-2.177895308E0,-1.016671538E0
4.270121904E0,1.658767939E0,-2.155293226E0,-9.745218754E-1
4.272123270E0,1.463901877E0,-2.089319706E0,-8.596792221E-1
4.274124603E0,1.275755405E0,-2.047170162E0,-7.607190609E-1
4.276125936E0,1.178627849E0,-2.011739969E0,-7.045193911E-1
4.278127302E0,9.807075262E-1,-1.891399384E0,-5.762377381E-1
4.280127868E0,8.188281655E-1,-1.750289559E0,-4.332952499E-1
4.282129201E0,7.375831008E-1,-1.672709703E0,-3.526610732E-1
4.284130567E0,5.921971798E-1,-1.548093081E0,-1.834513843E-1
4.286132233E0,5.201151371E-1,-1.494337082E0,-1.058714986E-1
4.288132866E0,3.924442828E-1,-1.425920129E0,5.600779131E-2
4.290134232E0,2.892080247E-1,-1.348951221E0,2.203305364E-1
4.292135832E0,2.415605485E-1,-1.316575289E0,3.034082055E-1
4.294137165E0,1.590937525E-1,-1.267095208E0,4.549027979E-1
4.296138531E0,1.059484705E-1,-1.235941052E0,5.880714059E-1
4.298140131E0,8.334644884E-2,-1.212117314E0,6.454927325E-1
4.300141464E0,5.707925186E-2,-1.171800137E0,7.481181026E-1
4.302142830E0,3.508809954E-2,-1.143700480E0,8.232545257E-1
4.304144163E0,2.653598599E-2,-1.133926511E0,8.531869650E-1
4.306147029E0,1.554041170E-2,-1.088722587E0,9.002235532E-1
4.308150295E0,2.712241607E-3,-1.038631558E0,9.442058802E-1
4.310151628E0,-9.529497474E-4,-1.011753440E0,9.539796710E-1
4.312152961E0,4.544837400E-3,-9.506669641E-1,9.545905590E-1
4.314154294E0,1.004262455E-2,-9.207345843E-1,9.435949922E-1
4.316155327E0,2.470339090E-2,-8.443763852E-1,9.191604257E-1
4.318156693E0,4.180761799E-2,-7.588552833E-1,8.971692324E-1
4.320157726E0,4.974886775E-2,-7.057099938E-1,8.928931952E-1
4.322159059E0,5.769011378E-2,-5.829260945E-1,8.684585690E-1
4.324160425E0,7.540520281E-2,-4.803007543E-1,8.348609805E-1
4.326161758E0,8.151385188E-2,-4.271554649E-1,8.171458840E-1
4.328163091E0,9.800721705E-2,-3.245300949E-1,7.719418406E-1
