"Time (s)","Acceleration x (m/s^2)","Acceleration y (m/s^2)","Acceleration z (m/s^2)"
1.240830000E-1,9.981731415E0,5.985686928E-2,6.967339516E-1
1.260835000E-1,9.981731415E0,5.985686928E-2,6.967339516E-1
1.280848330E-1,9.981731415E0,5.985686928E-2,6.967339516E-1
1.300858330E-1,9.486116409E0,-2.633702382E-2,-5.578660369E-1
1.320868330E-1,9.524425507E0,-7.422251999E-2,-5.315290093E-1
1.340881660E-1,9.490905762E0,-8.858817071E-2,-5.027977228E-1
1.360894510E-1,9.414288521E0,-9.577099234E-2,-5.123748183E-1
1.380907010E-1,9.380768776E0,-1.125309169E-1,-5.578660369E-1
1.400920340E-1,9.325700760E0,-1.460507661E-1,-6.392713785E-1
1.420932340E-1,9.241900444E0,-1.532335877E-1,-7.350423932E-1
1.440945060E-1,9.217958450E0,-1.268965602E-1,-7.925049663E-1
1.460957560E-1,9.136552811E0,-1.077423692E-1,-8.356019258E-1
1.480969860E-1,9.067118645E0,-1.029538140E-1,-8.882759809E-1
1.500982710E-1,9.007262230E0,-1.149251908E-1,-9.026415944E-1
1.520995370E-1,8.928250313E0,-1.173194647E-1,-9.577099085E-1
1.541007870E-1,8.839662552E0,-1.340793967E-1,-9.888355136E-1
1.561021390E-1,8.779806137E0,-1.268965602E-1,-1.010383964E0
1.581034720E-1,8.640937805E0,-1.149251908E-1,-1.039115310E0
1.601047870E-1,8.511647224E0,-1.292908341E-1,-1.046298146E0
1.621061370E-1,8.449396133E0,-1.484450400E-1,-1.065452337E0
1.641074220E-1,8.329682350E0,-1.747820675E-1,-1.077423692E0
1.661087400E-1,8.267431259E0,-1.891477108E-1,-1.072635174E0
1.681100870E-1,8.126168251E0,-2.705530524E-1,-1.199531674E0
1.701113780E-1,8.001666069E0,-2.130904645E-1,-1.201925993E0
1.721126980E-1,7.941809654E0,-1.771763414E-1,-1.161223292E0
1.741140440E-1,7.824490070E0,-1.340793967E-1,-1.108549237E0
1.761158210E-1,7.690410614E0,-1.532335877E-1,-1.158828974E0
1.781171420E-1,7.620976925E0,-1.915419847E-1,-1.223474383E0
1.801184520E-1,7.525205612E0,-2.298503816E-1,-1.331216812E0
1.821197520E-1,7.446194649E0,-2.130904645E-1,-1.434170604E0
1.841210850E-1,7.328875065E0,-1.747820675E-1,-1.489238977E0
1.861263850E-1,7.254652500E0,-1.556278616E-1,-1.479661822E0
1.881277180E-1,7.197190285E0,-1.316851079E-1,-1.484450340E0
1.901290510E-1,7.120573044E0,-1.292908341E-1,-1.460507631E0
1.921304510E-1,7.051139355E0,-1.077423692E-1,-1.486844659E0
1.941317840E-1,6.998465061E0,-9.098244458E-2,-1.520364523E0
1.961330840E-1,6.936213970E0,-6.703969836E-2,-1.553884387E0
1.981405840E-1,6.873962879E0,-5.746259540E-2,-1.690358043E0
2.001418840E-1,6.890722752E0,-4.309694469E-2,-1.664021015E0
2.021432170E-1,6.818894863E0,-1.675992459E-2,-1.673598051E0
2.041445830E-1,6.730306625E0,6.464541703E-2,-1.623318315E0
2.061459490E-1,6.691998005E0,6.943397224E-2,-1.594586968E0
2.081473150E-1,6.612987041E0,6.703969836E-2,-1.587404251E0
2.101486810E-1,6.569890022E0,6.464541703E-2,-1.613741279E0
2.121500470E-1,6.498061657E0,5.506832153E-2,-1.637683988E0
2.141514130E-1,6.454965115E0,8.619388938E-2,-1.675992370E0
2.161527130E-1,6.445387840E0,9.098244458E-2,-1.719089270E0
2.181540460E-1,6.366376877E0,6.464541703E-2,-1.829225898E0
2.201553790E-1,6.340039730E0,1.101366431E-1,-1.762186289E0
2.221566790E-1,6.356799603E0,1.292908341E-1,-1.673598051E0
2.241580120E-1,6.301731110E0,1.628106833E-1,-1.594586968E0
2.261593780E-1,6.237085819E0,1.652049571E-1,-1.558672905E0
2.281607110E-1,6.222720146E0,1.652049571E-1,-1.565855742E0
2.301620770E-1,6.160469055E0,1.149251908E-1,-1.613741279E0
2.321634100E-1,6.122160912E0,1.125309169E-1,-1.644866824E0
2.341647430E-1,6.071880817E0,1.149251908E-1,-1.675992370E0
2.361656760E-1,6.009629726E0,9.816526622E-2,-1.699935079E0
2.381670420E-1,5.990475655E0,1.077423692E-1,-1.707117915E0
2.401684080E-1,5.904281616E0,6.464541703E-2,-1.755003452E0
2.421697740E-1,5.892310143E0,5.746259540E-2,-1.716695070E0
2.441711070E-1,5.844424725E0,6.464541703E-2,-1.644866824E0
2.481698070E-1,5.724710941E0,3.830839694E-2,-1.683175206E0
2.501711730E-1,5.695979595E0,9.577099234E-3,-1.731060743E0
2.521724730E-1,5.612180233E0,-3.830839694E-2,-1.812466025E0
2.541790730E-1,5.514014721E0,-4.788549617E-2,-1.860351562E0
2.561804390E-1,5.492466450E0,-7.182824612E-2,-1.881899953E0
2.601799720E-1,5.329655647E0,-8.379961550E-2,-1.956122518E0
2.621813380E-1,5.255433083E0,-8.858817071E-2,-2.011190891E0
2.641826380E-1,5.159662247E0,-1.077423692E-1,-2.027950764E0
2.661837040E-1,5.114171028E0,-1.173194647E-1,-2.049499273E0
2.681850370E-1,5.027976990E0,-1.556278616E-1,-2.106961727E0
2.701861370E-1,4.977697372E0,-1.508393139E-1,-2.188367128E0
2.721874370E-1,4.953754425E0,-1.460507661E-1,-2.233858347E0
2.741885030E-1,4.893897533E0,-1.652049571E-1,-2.317657948E0
2.761898360E-1,4.862771988E0,-2.011190802E-1,-2.420611858E0
2.781911690E-1,4.857983589E0,-2.106961906E-1,-2.475680113E0
2.801925350E-1,4.764606953E0,-2.346389294E-1,-2.600182533E0
2.821939010E-1,4.733481407E0,-2.537931204E-1,-2.592999697E0
2.841952670E-1,4.719115734E0,-2.202732861E-1,-2.604970932E0
2.861966000E-1,4.695172787E0,-2.394274771E-1,-2.695953369E0
2.881979330E-1,4.711932659E0,-2.585816681E-1,-2.820455790E0
2.901992660E-1,4.735875607E0,-2.513988614E-1,-2.873129845E0
2.922017320E-1,4.745452881E0,-2.753416002E-1,-2.952140808E0
2.942030650E-1,4.752635479E0,-2.729473412E-1,-2.988054991E0
2.962044310E-1,4.771789551E0,-2.705530524E-1,-2.997632027E0
2.982057640E-1,4.814886570E0,-2.944957912E-1,-3.026363373E0
3.002070970E-1,4.831646442E0,-2.968900800E-1,-3.014391899E0
3.022084630E-1,4.869955063E0,-2.729473412E-1,-3.081431627E0
3.042098290E-1,4.951360226E0,-2.490045726E-1,-3.002420664E0
3.062111950E-1,4.963331699E0,-2.394274771E-1,-2.980872154E0
3.082125950E-1,5.039948463E0,-2.298503816E-1,-2.968900681E0
3.102139610E-1,5.066285610E0,-2.490045726E-1,-2.992843628E0
3.122152940E-1,5.152479172E0,-2.537931204E-1,-3.045517445E0
3.162127600E-1,5.269798756E0,-2.729473412E-1,-3.067065954E0
3.202124590E-1,5.470917702E0,-2.466102988E-1,-2.978477955E0
3.222138250E-1,5.511620522E0,-2.274561077E-1,-2.944957972E0
3.242151580E-1,5.616968632E0,-2.537931204E-1,-2.885101080E0
3.262167910E-1,5.724710941E0,-2.681587934E-1,-2.901860952E0
3.282181570E-1,5.779779434E0,-2.681587934E-1,-2.925803900E0
3.302197570E-1,5.873156071E0,-2.609759569E-1,-2.925803900E0
3.322211570E-1,5.916253090E0,-2.226675600E-1,-2.937775135E0
3.342227900E-1,6.004841328E0,-2.250618339E-1,-2.947352171E0
3.362241560E-1,6.057515144E0,-1.963305324E-1,-2.964112282E0
3.382255220E-1,6.105400562E0,-2.035133541E-1,-2.956929445E0
3.402268220E-1,6.182017326E0,-1.795706153E-1,-2.988054991E0
3.422281550E-1,6.237085819E0,-1.292908341E-1,-3.067065954E0
3.442294880E-1,6.282577038E0,-1.268965602E-1,-3.093403101E0
3.462307880E-1,6.368771076E0,-9.098244458E-2,-3.146077156E0
3.482321210E-1,6.469330311E0,-6.703969836E-2,-3.191568375E0
3.502334870E-1,6.502850533E0,-5.746259540E-2,-3.213116884E0
3.522337200E-1,6.605803967E0,-3.591412306E-2,-3.256213665E0
3.542350530E-1,6.725517750E0,-2.873129770E-2,-3.282550812E0
3.562363860E-1,6.787769318E0,-9.577099234E-3,-3.272973776E0
3.582377190E-1,6.952973843E0,2.394274808E-2,-3.253819466E0
3.602390520E-1,7.010436535E0,4.549122229E-2,-3.241847992E0
3.622403850E-1,7.158881664E0,6.225114316E-2,-3.256213665E0
3.642417180E-1,7.292961121E0,1.053480953E-1,-3.258608103E0
3.662430840E-1,7.364789486E0,1.221080124E-1,-3.256213665E0
3.682443840E-1,7.573091030E0,1.077423692E-1,-3.229876757E0
3.702456840E-1,7.699987888E0,1.173194647E-1,-3.222693920E0
3.722467500E-1,7.805335999E0,1.532335877E-1,-3.186779737E0
3.742480830E-1,8.032792091E0,1.987248063E-1,-3.155654192E0
3.762493830E-1,8.308133125E0,1.580221355E-1,-3.184385538E0
3.782562490E-1,8.437424660E0,1.628106833E-1,-3.220299721E0
3.802576150E-1,8.650514603E0,1.580221355E-1,-3.129317284E0
3.822589150E-1,8.739103317E0,1.652049571E-1,-3.107768774E0
3.842603150E-1,9.000079155E0,1.843591630E-1,-2.978477955E0
3.862616480E-1,9.450202942E0,1.843591630E-1,-3.119740009E0
3.882629480E-1,9.687235832E0,1.819648892E-1,-3.172414064E0
3.902639810E-1,9.907508850E0,1.580221355E-1,-3.186779737E0
3.922655810E-1,1.001525116E1,1.173194647E-1,-3.162837029E0
3.942669140E-1,1.011581135E1,8.379961550E-2,-3.136499882E0
3.962679470E-1,1.041749001E1,2.394274808E-2,-3.122134447E0
3.982692800E-1,1.065212822E1,-7.182824425E-3,-3.057488918E0
4.002706130E-1,1.075747681E1,-1.197137404E-2,-2.992843628E0
4.022719790E-1,1.089395046E1,3.112557158E-2,-2.959323645E0
4.042733450E-1,1.096577835E1,4.070267081E-2,-2.992843628E0
4.062747110E-1,1.103521252E1,1.675992459E-2,-3.033546209E0
4.082757770E-1,1.132731438E1,-3.112557158E-2,-3.019180536E0
4.102771100E-1,1.143026829E1,-4.788549617E-2,-2.990449190E0
4.122784430E-1,1.158350182E1,-1.197137404E-2,-2.932986736E0
4.142798090E-1,1.175349522E1,4.788549617E-2,-2.935380936E0
4.162811420E-1,1.175349522E1,1.005595401E-1,-2.940169573E0
4.182824750E-1,1.175349522E1,1.029538140E-1,-2.899466753E0
4.202838080E-1,1.187560272E1,-9.577099234E-3,-2.961717844E0
4.222913740E-1,1.190433407E1,-7.422251999E-2,-3.016786337E0
4.242928400E-1,1.189236259E1,-8.140534163E-2,-3.102980137E0
4.262938730E-1,1.200489426E1,-1.149251908E-1,-3.158048391E0
4.282952060E-1,1.209587669E1,-9.098244458E-2,-3.311282158E0
4.302965720E-1,1.220361900E1,-9.337671846E-2,-3.493247032E0
4.322982380E-1,1.220601273E1,-1.268965602E-1,-3.557892323E0
4.342995710E-1,1.215812778E1,-1.149251908E-1,-3.505218267E0
4.363009710E-1,1.215812778E1,-7.661679387E-2,-3.498035431E0
4.402980710E-1,1.234966946E1,-1.747820675E-1,-3.696760416E0
4.422994710E-1,1.228502369E1,-2.346389294E-1,-3.902667999E0
4.443008040E-1,1.227544689E1,-2.537931204E-1,-3.993650436E0
4.463021370E-1,1.229938984E1,-3.160442710E-1,-4.134912491E0
4.483043700E-1,1.232093811E1,-3.615354896E-1,-4.237866402E0
4.503060030E-1,1.225389862E1,-3.854782581E-1,-4.300117493E0
4.523070690E-1,1.213897324E1,-4.429408312E-1,-4.462928295E0
4.543084350E-1,1.220840740E1,-6.105400920E-1,-4.474899769E0
4.563101010E-1,1.224911022E1,-6.703969240E-1,-4.494053841E0
4.583114340E-1,1.235445786E1,-6.895511150E-1,-4.474899769E0
4.603128000E-1,1.235445786E1,-7.158881426E-1,-4.494053841E0
4.623141330E-1,1.242628670E1,-7.110996246E-1,-4.486870766E0
4.643154660E-1,1.246220016E1,-6.727912426E-1,-4.470110893E0
4.663168320E-1,1.245501709E1,-6.727912426E-1,-4.465322495E0
4.683183650E-1,1.257233715E1,-7.374366522E-1,-4.403071404E0
4.703196980E-1,1.270402241E1,-7.350423932E-1,-4.324060440E0
4.723210640E-1,1.271599388E1,-7.254652381E-1,-4.266597748E0
4.743237300E-1,1.283570766E1,-7.158881426E-1,-4.173221111E0
4.763250300E-1,1.297696972E1,-7.254652381E-1,-4.082238674E0
4.783285960E-1,1.303443241E1,-7.063110471E-1,-4.036747456E0
4.803299290E-1,1.319484806E1,-7.254652381E-1,-3.969707727E0
4.843262280E-1,1.365694332E1,-6.751855016E-1,-3.878725290E0
4.863278610E-1,1.372877216E1,-6.584255695E-1,-3.838022470E0
4.883291940E-1,1.385566807E1,-6.703969240E-1,-3.833234072E0
4.903312270E-1,1.419804955E1,-6.464542150E-1,-3.811685562E0
4.923325600E-1,1.437283134E1,-6.344828010E-1,-3.830839634E0
4.943338930E-1,1.452127647E1,-6.392713785E-1,-3.842811108E0
4.963352260E-1,1.482295513E1,-6.057515144E-1,-3.885908127E0
4.983365920E-1,1.511266232E1,-5.842030644E-1,-3.957736254E0
5.003379580E-1,1.525631905E1,-5.818088055E-1,-3.984073162E0
5.023389910E-1,1.556518078E1,-5.530774593E-1,-4.067873001E0
5.043403240E-1,1.568728828E1,-5.267404318E-1,-4.113364220E0
5.063416570E-1,1.596263027E1,-5.027977228E-1,-4.242654800E0
5.083421900E-1,1.624754906E1,-4.884320498E-1,-4.371945858E0
5.103435230E-1,1.639360046E1,-4.764606953E-1,-4.412648678E0
5.123448560E-1,1.667133522E1,-4.620950520E-1,-4.474899769E0
5.143461560E-1,1.696822548E1,-4.046324492E-1,-4.563488007E0
5.163474890E-1,1.707836151E1,-3.711125851E-1,-4.623344421E0
5.183488550E-1,1.727948189E1,-3.184385598E-1,-4.826858044E0
5.203501880E-1,1.749017715E1,-3.375927508E-1,-4.939388752E0
5.223515210E-1,1.757397652E1,-3.280156553E-1,-4.956148624E0
5.243574870E-1,1.777270126E1,-3.184385598E-1,-4.999245644E0
5.263588200E-1,1.797382164E1,-3.016786277E-1,-5.059102535E0
5.283602200E-1,1.806719780E1,-2.897072434E-1,-5.104593754E0
5.303615860E-1,1.826113319E1,-2.657645047E-1,-5.166844845E0
5.323629190E-1,1.835690498E1,-2.537931204E-1,-5.197970390E0
5.343629190E-1,1.852450371E1,-2.298503816E-1,-5.231490612E0
5.363643190E-1,1.866337204E1,-1.795706153E-1,-5.260221958E0
5.403647850E-1,1.890998268E1,-1.460507661E-1,-5.389512539E0
5.423661850E-1,1.905842781E1,-1.604164094E-1,-5.487678051E0
5.443674850E-1,1.917574692E1,-1.867534369E-1,-5.602602959E0
5.463688180E-1,1.925475883E1,-1.891477108E-1,-5.633728504E0
5.483702180E-1,1.938404846E1,-2.466102988E-1,-5.715134144E0
5.503708840E-1,1.945348358E1,-2.609759569E-1,-5.734288216E0
5.523721840E-1,1.958516884E1,-2.825244367E-1,-5.810904980E0
5.543735500E-1,1.965460205E1,-3.136500120E-1,-5.844424725E0
5.563748830E-1,1.972164154E1,-3.495641351E-1,-5.935407162E0
5.583762160E-1,1.979347038E1,-4.046324492E-1,-6.014418125E0
5.603775490E-1,1.984375000E1,-4.189980924E-1,-6.064698219E0
5.623791820E-1,1.994430923E1,-4.932205975E-1,-6.177228928E0
5.643805150E-1,2.002092552E1,-5.243461728E-1,-6.239480019E0
5.663818480E-1,2.006162834E1,-5.363175869E-1,-6.294548512E0
5.683831480E-1,2.012866783E1,-5.291347504E-1,-6.349617004E0
5.703844810E-1,2.022683334E1,-5.219519138E-1,-6.387925148E0
5.723861140E-1,2.025317001E1,-5.099805593E-1,-6.404685020E0
5.743874140E-1,2.033457565E1,-5.339232683E-1,-6.416656494E0
5.763887470E-1,2.042077065E1,-5.387118459E-1,-6.416656494E0
5.783900800E-1,2.045668411E1,-5.339232683E-1,-6.407079220E0
5.803935800E-1,2.056203270E1,-5.482889414E-1,-6.344828129E0
5.823949130E-1,2.064343834E1,-5.746259689E-1,-6.294548512E0
5.863929790E-1,2.097384644E1,-5.889915824E-1,-6.184412003E0
5.883943790E-1,2.104567528E1,-5.913859010E-1,-6.167652130E0
5.903956790E-1,2.117257118E1,-6.057515144E-1,-6.160469055E0
5.923969790E-1,2.131383514E1,-6.033572555E-1,-6.170046329E0
5.943983450E-1,2.138087463E1,-5.961744189E-1,-6.172440529E0
5.963996780E-1,2.156044388E1,-5.961744189E-1,-6.158074856E0
5.984010110E-1,2.174001503E1,-6.464542150E-1,-6.134131908E0
6.004024110E-1,2.182621002E1,-6.536370516E-1,-6.103006363E0
6.024037110E-1,2.201056862E1,-7.278595567E-1,-6.050332546E0
6.044050440E-1,2.221168709E1,-8.068706393E-1,-5.961744308E0
6.064064100E-1,2.232661247E1,-8.523618579E-1,-5.933012962E0
6.084077430E-1,2.254688644E1,-9.529213905E-1,-5.861184597E0
6.104090430E-1,2.264983940E1,-1.005595446E0,-5.849213123E0
6.124108430E-1,2.289166069E1,-1.091789365E0,-5.779779434E0
6.144121430E-1,2.312630081E1,-1.154040456E0,-5.736682415E0
6.164134760E-1,2.326037979E1,-1.245022893E0,-5.710345268E0
6.184148420E-1,2.342319107E1,-1.256994247E0,-5.664854050E0
6.204162080E-1,2.361473274E1,-1.177983165E0,-5.619362831E0
6.224175080E-1,2.370092583E1,-1.163617611E0,-5.597814560E0
6.244188410E-1,2.387570763E1,-1.211503029E0,-5.521197796E0
6.264217740E-1,2.400739288E1,-1.268965602E0,-5.463735104E0
6.284231070E-1,2.407203865E1,-1.285725594E0,-5.423032284E0
6.304244730E-1,2.416781044E1,-1.357553840E0,-5.382329941E0
6.324255390E-1,2.420611763E1,-1.369525194E0,-5.372752666E0
6.344269390E-1,2.424921608E1,-1.410227895E0,-5.372752666E0
6.364283050E-1,2.430188942E1,-1.450930476E0,-5.169239521E0
6.384296050E-1,2.432343864E1,-1.455719113E0,-5.171633720E0
6.424301710E-1,2.438329506E1,-1.371919513E0,-5.561900616E0
6.444315040E-1,2.436413956E1,-1.383890867E0,-5.540351868E0
6.464328370E-1,2.431625557E1,-1.424593568E0,-5.444581032E0
6.484341700E-1,2.426597595E1,-1.462901950E0,-5.353598595E0
6.504355030E-1,2.423006058E1,-1.472478986E0,-5.339232922E0
6.524365690E-1,2.410077095E1,-1.479661822E0,-5.332049847E0
6.544378690E-1,2.403133583E1,-1.498816013E0,-5.370358467E0
6.564392020E-1,2.384697723E1,-1.513181686E0,-5.456552505E0
6.584405680E-1,2.360276031E1,-1.513181686E0,-5.540351868E0
6.604419010E-1,2.346389389E1,-1.513181686E0,-5.595420361E0
6.624432670E-1,2.315982056E1,-1.539518714E0,-5.430215359E0
6.644446670E-1,2.276476479E1,-1.479661822E0,-5.746259689E0
6.664457000E-1,2.254928017E1,-1.429382086E0,-5.861184597E0
6.684470330E-1,2.202493477E1,-1.415016413E0,-5.913858891E0
6.704484330E-1,2.146706772E1,-1.398256540E0,-5.736682415E0
6.724493330E-1,2.118214989E1,-1.386285067E0,-5.662459850E0
6.744506990E-1,2.057160950E1,-1.333611012E0,-5.470917702E0
6.764520650E-1,2.022683334E1,-1.304879785E0,-5.403878212E0
6.784533980E-1,1.957798576E1,-1.240234375E0,-5.291347504E0
6.804547310E-1,1.896505165E1,-1.182771802E0,-5.188393593E0
6.824560970E-1,1.865858269E1,-1.168406129E0,-5.104593754E0
6.844574300E-1,1.816536331E1,-1.094183564E0,-4.946571827E0
6.884585620E-1,1.731300163E1,-9.505270720E-1,-5.145296574E0
6.904598950E-1,1.663542175E1,-8.930644989E-1,-4.934600353E0
6.924612280E-1,1.600333214E1,-8.499675393E-1,-4.491659641E0
6.944625940E-1,1.590756226E1,-8.571503758E-1,-4.319271564E0
6.964639270E-1,1.567052841E1,-7.805336118E-1,-4.367157459E0
6.984652600E-1,1.529223347E1,-7.134938836E-1,-4.379128456E0
7.004685260E-1,1.507435417E1,-6.799740195E-1,-4.235472202E0
7.024698590E-1,1.476549244E1,-7.733507752E-1,-3.948159218E0
7.044711920E-1,1.462183666E1,-7.470137477E-1,-3.761405706E0
7.064725250E-1,1.436325455E1,-5.339232683E-1,-3.560286522E0
7.084738580E-1,1.420044422E1,-4.046324492E-1,-3.517189741E0
7.104799240E-1,1.408791256E1,-3.232271075E-1,-3.450150013E0
7.124815900E-1,1.400650787E1,-1.747820675E-1,-3.234665155E0
7.144829560E-1,1.393228531E1,-1.436564922E-1,-2.870735407E0
7.164842890E-1,1.384609127E1,-1.221080124E-1,-2.506805658E0
7.184856220E-1,1.348216152E1,4.309694469E-2,-2.535537004E0
7.204869550E-1,1.308471203E1,1.891477108E-1,-2.621730804E0
7.224883210E-1,1.288119888E1,2.083019018E-1,-2.636096478E0
7.244896540E-1,1.242389202E1,1.819648892E-1,-2.485257149E0
7.264945870E-1,1.186123753E1,1.292908341E-1,-2.293715239E0
7.284963200E-1,1.154040432E1,1.245022863E-1,-2.214704275E0
7.304976200E-1,1.102084732E1,1.340793967E-1,-1.781340480E0
7.324989530E-1,1.075747681E1,2.011190802E-1,-1.733454943E0
7.345003190E-1,1.012299347E1,4.070267081E-1,-2.104567528E0
7.365016190E-1,9.500482559E0,5.387118459E-1,-2.384697676E0
7.385029520E-1,9.232323647E0,5.937801600E-1,-2.406246185E0
7.405043180E-1,8.794171333E0,5.842030644E-1,-2.367937803E0
7.425056840E-1,8.353624344E0,4.692778587E-1,-2.257801056E0
7.445067840E-1,8.090254784E0,4.094209969E-1,-2.183578730E0
7.465081170E-1,7.465348721E0,3.471698463E-1,-2.078230619E0
7.485094500E-1,7.149304390E0,3.854782581E-1,-2.032739401E0
7.505107830E-1,6.519610405E0,4.261809289E-1,-2.013585091E0
7.525121490E-1,5.856396198E0,5.243461728E-1,-2.030344963E0
7.545134490E-1,5.533169270E0,5.626545548E-1,-2.035133600E0
7.565154820E-1,4.925023079E0,6.464542150E-1,-2.042316437E0
7.585168820E-1,4.362368584E0,7.254652381E-1,-1.980065227E0
7.625175820E-1,3.562680960E0,8.499675393E-1,-1.824437380E0
7.645189480E-1,3.050306082E0,9.170072675E-1,-1.687963724E0
7.665202810E-1,2.810878515E0,9.696813226E-1,-1.613741279E0
7.685216140E-1,2.375120640E0,1.015172482E0,-1.450930476E0
7.725195800E-1,1.695146561E0,1.065452337E0,-1.228263021E0
7.745209130E-1,1.240234375E0,1.070240855E0,-1.065452337E0
7.765229790E-1,1.048692346E0,1.065452337E0,-9.864411950E-1
7.785243120E-1,6.320885420E-1,1.082212210E0,-8.188419938E-1
7.805256450E-1,2.226675600E-1,1.091789365E0,-7.039167881E-1
7.825269780E-1,1.675992459E-2,1.118126392E0,-6.464542150E-1
7.845283110E-1,-3.711125851E-1,1.113337755E0,-5.458946824E-1
7.885277770E-1,-9.170072675E-1,1.084606528E0,-4.333637357E-1
7.905291100E-1,-1.367130876E0,1.082212210E0,-3.375927508E-1
7.925304760E-1,-1.845985889E0,1.077423692E0,-2.322446555E-1
7.945318090E-1,-2.075836182E0,1.082212210E0,-1.675992310E-1
7.965329090E-1,-2.509200096E0,1.034326673E0,-4.309694469E-2
7.985342750E-1,-2.729473352E0,9.960182905E-1,9.577099234E-3
8.005356080E-1,-3.124528646E0,9.553156495E-1,1.508393139E-1
8.025369080E-1,-3.445361376E0,9.241901040E-1,2.825244367E-1
8.045385080E-1,-3.577046633E0,9.313728809E-1,3.639297783E-1
8.065398740E-1,-3.799714088E0,9.265843630E-1,5.530774593E-1
8.085412070E-1,-3.912245035E0,8.715160489E-1,6.727912426E-1
8.105425730E-1,-4.019987583E0,8.547561169E-1,7.110996246E-1
8.125439060E-1,-4.405465603E0,7.925049663E-1,7.110996246E-1
8.145452720E-1,-4.805309772E0,6.368771195E-1,7.278595567E-1
8.165459050E-1,-4.901080608E0,5.698373914E-1,7.182824612E-1
8.185469380E-1,-5.073468208E0,3.543526828E-1,7.254652381E-1
8.205482710E-1,-5.219519138E0,1.436564922E-1,7.374366522E-1
8.225493710E-1,-5.272192955E0,5.027977005E-2,7.398309112E-1
8.245507040E-1,-5.320078850E0,-1.268965602E-1,7.134938836E-1
8.265518040E-1,-5.327261448E0,-2.202732861E-1,7.134938836E-1
8.285531700E-1,-5.379935265E0,-3.304099143E-1,6.991282701E-1
8.305545360E-1,-5.432609558E0,-3.974496126E-1,6.991282701E-1
8.325558690E-1,-5.442186832E0,-4.309694767E-1,7.374366522E-1
8.345572350E-1,-5.348809719E0,-4.740664065E-1,7.350423932E-1
8.365578350E-1,-5.269798756E0,-4.908263385E-1,7.350423932E-1
8.385591350E-1,-5.190787792E0,-5.195576549E-1,7.374366522E-1
8.405605010E-1,-5.001639843E0,-5.650488734E-1,7.110996246E-1
8.425615340E-1,-4.817280769E0,-5.865973234E-1,6.608198285E-1
8.445628670E-1,-4.601796150E0,-5.937801600E-1,6.344828010E-1
8.465635000E-1,-4.477293968E0,-6.129343510E-1,6.105400920E-1
8.485654330E-1,-4.371945858E0,-6.249057055E-1,5.913859010E-1
8.505667990E-1,-4.185192585E0,-6.177229285E-1,5.339232683E-1
8.525681650E-1,-3.938581944E0,-6.320885420E-1,4.644893110E-1
8.545694980E-1,-3.792531252E0,-6.656084061E-1,4.740664065E-1
8.565710980E-1,-3.490852594E0,-6.799740195E-1,4.453351200E-1
8.585724310E-1,-3.198751211E0,-7.063110471E-1,4.405465722E-1
8.605737640E-1,-3.040729046E0,-7.158881426E-1,4.429408312E-1
8.625751640E-1,-2.688770533E0,-7.446194887E-1,4.285751879E-1
8.645765300E-1,-2.360754967E0,-8.044763207E-1,3.878725171E-1
8.665778300E-1,-2.209915638E0,-8.212362528E-1,3.663240373E-1
8.685788960E-1,-1.898659945E0,-8.499675393E-1,3.519583941E-1
8.705802290E-1,-1.726272106E0,-8.810931444E-1,3.495641351E-1
8.725815620E-1,-1.436564922E0,-8.858816624E-1,3.519583941E-1
8.745890620E-1,-1.130097747E0,-9.050358534E-1,3.256213665E-1
8.765904280E-1,-9.912297726E-1,-9.122186899E-1,3.256213665E-1
8.785920280E-1,-7.158881426E-1,-9.194015265E-1,3.423812985E-1
8.805937280E-1,-4.309694767E-1,-9.313728809E-1,3.591412306E-1
8.825960610E-1,-2.944957912E-1,-9.457385540E-1,3.806896806E-1
8.845973940E-1,-5.506832153E-2,-9.409499764E-1,4.189980924E-1
8.865990270E-1,1.628106833E-1,-9.170072675E-1,4.237866402E-1
8.886003600E-1,2.609759569E-1,-8.906702399E-1,4.022381604E-1
8.906016600E-1,4.285751879E-1,-8.547561169E-1,3.974496126E-1
8.926029930E-1,5.698373914E-1,-8.116591573E-1,3.854782581E-1
8.946042930E-1,6.081457734E-1,-7.685621977E-1,3.687183261E-1
8.966056590E-1,7.015225291E-1,-6.656084061E-1,3.471698463E-1
8.986070590E-1,7.230709791E-1,-6.344828010E-1,3.160442710E-1
9.006083920E-1,7.637736797E-1,-5.243461728E-1,2.897072434E-1
9.026099920E-1,7.446194887E-1,-4.189980924E-1,2.729473412E-1
9.046113580E-1,6.943396926E-1,-3.375927508E-1,2.681587934E-1
9.066126910E-1,6.632141471E-1,-3.136500120E-1,2.513988614E-1
9.086136910E-1,6.009629965E-1,-2.298503816E-1,2.513988614E-1
9.106150240E-1,5.554717779E-1,-2.035133541E-1,2.490045726E-1
9.126163570E-1,4.477293789E-1,-1.125309169E-1,2.729473412E-1
9.146176900E-1,3.351984620E-1,-3.830839694E-2,2.609759569E-1
9.166190230E-1,2.657645047E-1,7.182824425E-3,2.633702159E-1
9.186267230E-1,1.221080124E-1,5.027977005E-2,2.968900800E-1
9.206285230E-1,5.027977005E-2,1.364736706E-1,3.016786277E-1
9.226298230E-1,-8.379961550E-2,1.628106833E-1,3.136500120E-1
9.246311560E-1,-2.274561077E-1,2.370332032E-1,3.232271075E-1
9.266325220E-1,-2.801301479E-1,2.705530524E-1,3.256213665E-1
9.286341220E-1,-4.213923812E-1,3.519583941E-1,3.328042030E-1
9.306351880E-1,-5.291347504E-1,4.237866402E-1,3.328042030E-1
9.326365540E-1,-5.674431324E-1,4.644893110E-1,3.351984620E-1
9.366327870E-1,-6.895511150E-1,5.770202279E-1,3.160442710E-1
9.386341870E-1,-7.015225291E-1,5.746259689E-1,3.160442710E-1
9.406351870E-1,-7.518022656E-1,6.057515144E-1,2.968900800E-1
9.426365200E-1,-7.709565163E-1,6.368771195E-1,2.873129845E-1
9.446378530E-1,-7.733507752E-1,6.392713785E-1,2.729473412E-1
9.466391530E-1,-7.589851022E-1,6.201171875E-1,2.370332032E-1
9.486404860E-1,-7.350423932E-1,6.201171875E-1,2.202732861E-1
9.506418860E-1,-6.847625971E-1,6.057515144E-1,1.699935049E-1
9.526432520E-1,-6.536370516E-1,5.722316504E-1,1.029538140E-1
9.546446180E-1,-6.320885420E-1,5.530774593E-1,6.464541703E-2
9.566459840E-1,-5.865973234E-1,5.267404318E-1,2.394274808E-3
9.586473170E-1,-5.147690773E-1,4.692778587E-1,-7.661679387E-2
9.606486500E-1,-4.980091453E-1,4.525179267E-1,-1.149251908E-1
9.626500500E-1,-4.333637357E-1,4.285751879E-1,-1.699935049E-1
9.646513830E-1,-3.615354896E-1,4.022381604E-1,-2.561874092E-1
9.666524160E-1,-3.208328187E-1,3.878725171E-1,-2.944957912E-1
9.686537820E-1,-2.921015322E-1,3.567469418E-1,-3.782954216E-1
9.706551480E-1,-2.633702159E-1,3.256213665E-1,-4.070267081E-1
9.726564810E-1,-2.370332032E-1,2.801301479E-1,-4.620950520E-1
9.746578140E-1,-2.322446555E-1,2.250618339E-1,-5.458946824E-1
9.766591800E-1,-2.202732861E-1,1.939362586E-1,-6.033572555E-1
9.806550130E-1,-2.346389294E-1,7.422251999E-2,-7.158881426E-1
9.826563790E-1,-2.370332032E-1,6.464541703E-2,-7.374366522E-1
9.846577120E-1,-2.609759569E-1,1.915419847E-2,-7.781392932E-1
9.866590780E-1,-3.040728867E-1,-4.788549617E-2,-8.284190893E-1
9.886604110E-1,-3.064671755E-1,-6.943397224E-2,-8.308133483E-1
9.906618770E-1,-3.447755575E-1,-1.221080124E-1,-8.523618579E-1
9.926632100E-1,-3.495641351E-1,-1.532335877E-1,-8.595446348E-1
9.946645430E-1,-3.567469418E-1,-1.675992310E-1,-8.499675393E-1
9.966661760E-1,-4.070267081E-1,-2.274561077E-1,-7.996878028E-1
9.986675090E-1,-4.668835998E-1,-2.490045726E-1,-7.637736797E-1
1.000668875E0,-4.908263385E-1,-2.873129845E-1,-6.680026650E-1
1.002669541E0,-5.219519138E-1,-3.184385598E-1,-6.273000240E-1
1.004670874E0,-5.458946824E-1,-3.328042030E-1,-6.009629965E-1
1.006672207E0,-5.889915824E-1,-3.806896806E-1,-5.195576549E-1
1.008673573E0,-6.105400920E-1,-4.166038036E-1,-4.285751879E-1
1.010674906E0,-6.296942830E-1,-4.022381604E-1,-3.830839694E-1
1.012676239E0,-6.153286099E-1,-4.166038036E-1,-2.992843390E-1
1.014677372E0,-6.201171875E-1,-4.213923812E-1,-2.154847383E-1
1.016678705E0,-6.129343510E-1,-4.309694767E-1,-1.699935049E-1
1.018680038E0,-5.889915824E-1,-4.357580245E-1,-1.005595401E-1
1.020681371E0,-5.794144869E-1,-4.261809289E-1,-6.703969836E-2
1.022682704E0,-5.626545548E-1,-4.094209969E-1,-9.577099234E-3
1.024684037E0,-5.889915824E-1,-3.854782581E-1,4.070267081E-2
1.026685703E0,-5.913859010E-1,-3.591412306E-1,6.464541703E-2
1.028687036E0,-5.842030644E-1,-3.495641351E-1,1.173194647E-1
1.030688802E0,-6.057515144E-1,-3.232271075E-1,1.221080124E-1
1.032690135E0,-6.081457734E-1,-3.184385598E-1,1.221080124E-1
1.034691501E0,-6.081457734E-1,-3.016786277E-1,1.173194647E-1
1.036692801E0,-5.770202279E-1,-2.944957912E-1,1.101366431E-1
1.038694167E0,-5.842030644E-1,-2.825244367E-1,9.337671846E-2
1.040695500E0,-5.698373914E-1,-2.801301479E-1,7.422251999E-2
1.042696833E0,-5.674431324E-1,-2.513988614E-1,6.225114316E-2
1.044698166E0,-5.889915824E-1,-2.585816681E-1,9.577099234E-3
1.046699499E0,-5.865973234E-1,-2.130904645E-1,-2.154847234E-2
1.048700832E0,-5.435003638E-1,-1.939362586E-1,-3.591412306E-2
1.050702098E0,-4.453351200E-1,-1.412622184E-1,-3.830839694E-2
1.052703264E0,-4.285751879E-1,-1.101366431E-1,-5.267404765E-2
1.054704597E0,-3.759011328E-1,-8.619388938E-2,-7.422251999E-2
1.056705930E0,-2.537931204E-1,-5.746259540E-2,-8.379961550E-2
1.058707230E0,-1.675992310E-1,-3.351984918E-2,-9.337671846E-2
1.060708563E0,-9.098244458E-2,-2.154847234E-2,-6.225114316E-2
1.062709863E0,1.915419847E-2,-3.351984918E-2,-4.549122229E-2
1.064711196E0,1.173194647E-1,-3.830839694E-2,-1.197137404E-2
1.066712562E0,1.867534369E-1,-5.746259540E-2,1.197137404E-2
1.068713895E0,3.112557232E-1,-7.182824612E-2,5.267404765E-2
1.070715228E0,3.759011328E-1,-8.140534163E-2,8.379961550E-2
1.072716594E0,4.764606953E-1,-9.577099234E-2,1.173194647E-1
1.074718160E0,6.153286099E-1,-8.140534163E-2,1.819648892E-1
1.076719493E0,6.727912426E-1,-8.619388938E-2,2.154847383E-1
1.078720859E0,8.308133483E-1,-6.943397224E-2,3.064671755E-1
1.080722225E0,1.058269501E0,-5.506832153E-2,4.070267081E-1
1.082723558E0,1.168406129E0,-5.267404765E-2,4.453351200E-1
1.084724891E0,1.429382086E0,-6.943397224E-2,4.549122155E-1
1.086725924E0,1.740637779E0,-1.053480953E-1,3.160442710E-1
1.088727224E0,1.881899953E0,-1.221080124E-1,2.083019018E-1
1.090728157E0,2.174001455E0,-1.292908341E-1,-8.379961550E-2
1.092729523E0,2.310475111E0,-1.292908341E-1,-2.250618339E-1
1.094730856E0,2.547508478E0,-1.125309169E-1,-5.051919818E-1
1.096732256E0,2.818061352E0,-7.182824612E-2,-7.087053657E-1
1.098733622E0,2.928198099E0,-4.070267081E-2,-7.326480746E-1
1.100734955E0,3.193962574E0,2.394274808E-2,-6.775797606E-1
1.102736288E0,3.419024467E0,4.788549617E-2,-5.123748183E-1
1.104737621E0,3.495641232E0,5.506832153E-2,-4.237866402E-1
1.106738921E0,3.730280161E0,4.788549617E-2,-2.370332032E-1
1.108740321E0,3.969707727E0,-2.873129770E-2,-5.267404765E-2
1.110742587E0,4.053507328E0,-6.225114316E-2,3.112557158E-2
1.112744087E0,4.292934895E0,-1.795706153E-1,2.011190802E-1
1.114745453E0,4.546727657E0,-2.968900800E-1,2.944957912E-1
1.116746819E0,4.676018715E0,-3.375927508E-1,4.070267081E-1
1.118747919E0,4.968120098E0,-3.998439014E-1,4.980091453E-1
1.120748985E0,5.135719299E0,-4.118152559E-1,5.099805593E-1
1.122751051E0,5.482889175E0,-3.974496126E-1,4.716721475E-1
1.124752417E0,5.916253090E0,-3.711125851E-1,3.567469418E-1
1.126753783E0,6.158074856E0,-3.495641351E-1,3.208328187E-1
1.128755083E0,6.668055534E0,-3.399870098E-1,1.819648892E-1
1.130756416E0,7.218738556E0,-3.232271075E-1,3.591412306E-2
1.132757716E0,7.518023014E0,-3.447755575E-1,-9.577099234E-3
1.134759749E0,8.157294273E0,-3.902668059E-1,-6.943397224E-2
1.136761082E0,8.818114281E0,-4.716721475E-1,-1.268965602E-1
1.138762415E0,9.191620827E0,-5.315290093E-1,-1.867534369E-1
1.140763715E0,9.941028595E0,-6.847625971E-1,-2.968900800E-1
1.142765081E0,1.034326744E1,-7.757450342E-1,-3.735068738E-1
1.144766447E0,1.169124413E1,-1.000806928E0,-5.530774593E-1
1.146767980E0,1.220601273E1,-1.070240855E0,-7.518022656E-1
1.148769380E0,1.275430202E1,-1.096577883E0,-8.523618579E-1
1.150776080E0,1.397777653E1,-1.110943556E0,-1.070240855E0
1.152777446E0,1.535687828E1,-1.055875182E0,-1.371919513E0
1.154778812E0,1.613022995E1,-1.029538155E0,-1.537124395E0
1.156780145E0,1.785650063E1,-1.005595446E0,-1.860351562E0
1.158781478E0,1.970967102E1,-9.912297726E-1,-2.217098475E0
1.160782811E0,2.067695808E1,-9.936240315E-1,-2.420611858E0
1.162784177E0,2.260913658E1,-9.696813226E-1,-2.844398499E0
1.164786243E0,2.448624802E1,-1.010383964E0,-3.131711483E0
1.166787643E0,2.547747803E1,-1.065452337E0,-3.737462997E0
1.168788976E0,2.772809601E1,-1.137280583E0,-4.352791786E0
1.170789576E0,2.882467461E1,-1.108549237E0,-4.666441441E0
1.172790909E0,3.070896912E1,-1.029538155E0,-5.152479172E0
1.174792242E0,3.220060349E1,-1.355159521E0,-5.734288216E0
1.176793542E0,3.281353760E1,-1.652049661E0,-6.071880817E0
1.178795175E0,3.405855942E1,-2.353572130E0,-6.787769318E0
1.180796808E0,3.481515121E1,-2.971295118E0,-7.383943558E0
1.182797441E0,3.531555176E1,-3.313676357E0,-7.597033978E0
1.184798507E0,3.600510406E1,-3.917033672E0,-7.893924236E0
1.186799840E0,3.634269714E1,-4.371945858E0,-7.891529560E0
1.188801206E0,3.633311844E1,-4.601796150E0,-7.881952763E0
1.190802539E0,3.545442200E1,-4.884320736E0,-7.580274105E0
1.192803905E0,3.506894302E1,-4.968120098E0,-7.374366283E0
1.194804505E0,3.445361328E1,-5.037554264E0,-6.768614769E0
1.196805871E0,3.415433121E1,-4.910657406E0,-6.043149471E0
1.198807904E0,3.389574814E1,-4.843617916E0,-5.655277252E0
1.200809270E0,3.346238327E1,-4.680807114E0,-4.927417755E0
1.202810570E0,3.300507736E1,-4.489265442E0,-4.333637238E0
1.204811903E0,3.249031067E1,-4.228289127E0,-3.888302326E0
1.206813336E0,3.220539093E1,-4.106181145E0,-3.723097324E0
1.208814669E0,3.166907310E1,-3.885908127E0,-3.426207304E0
1.212811668E0,3.093403053E1,-3.672817469E0,-3.076643229E0
1.214812968E0,3.071375656E1,-3.636903524E0,-3.007209063E0
1.216814268E0,3.030673027E1,-3.577046633E0,-2.937775135E0
1.218819234E0,2.983505821E1,-3.395081758E0,-2.897072554E0
1.220820334E0,2.957168770E1,-3.227482557E0,-2.909043789E0
1.222821667E0,2.913353539E1,-2.846792698E0,-2.971295118E0
1.224822333E0,2.874805832E1,-2.513988495E0,-3.081431627E0
1.226823633E0,2.859721756E1,-2.370332003E0,-3.172414064E0
1.228824966E0,2.839849281E1,-2.104567528E0,-3.349590540E0
1.230826366E0,2.839370537E1,-1.936968327E0,-3.531555414E0
1.232827699E0,2.846074486E1,-1.886688590E0,-3.620143414E0
1.234829032E0,2.875284576E1,-1.745426297E0,-3.809291124E0
1.236830432E0,2.917663193E1,-1.580221415E0,-3.909850836E0
1.238831765E0,2.940648270E1,-1.498816013E0,-4.087027073E0
1.240833098E0,2.997153282E1,-1.460507631E0,-4.134912491E0
1.242834264E0,3.029954720E1,-1.474873304E0,-4.106181145E0
1.244835897E0,3.096515656E1,-1.618529797E0,-3.905062199E0
1.246837197E0,3.167146683E1,-1.865140080E0,-3.624932051E0
1.248838563E0,3.204736710E1,-2.035133600E0,-3.498035431E0
1.250839896E0,3.270339966E1,-2.387091875E0,-3.249030828E0
1.252847762E0,3.329478455E1,-2.741444588E0,-3.011997700E0
1.254849128E0,3.355097198E1,-2.925803900E0,-2.897072554E0
1.256850428E0,3.397236633E1,-3.318464994E0,-2.748627424E0
1.258851028E0,3.428122711E1,-3.648874760E0,-2.655250788E0
1.260852361E0,3.436981583E1,-3.809291124E0,-2.607365370E0
1.262858627E0,3.442727661E1,-4.075055599E0,-2.588211060E0
1.264859927E0,3.436981583E1,-4.307300568E0,-2.590605259E0
1.266861260E0,3.429798508E1,-4.407859802E0,-2.581028223E0
1.268862560E0,3.407052994E1,-4.592218876E0,-2.624125242E0
1.270863893E0,3.391011429E1,-4.661653042E0,-2.650462151E0
1.272865493E0,3.352942276E1,-4.738269806E0,-2.648067951E0
1.274866826E0,3.310324478E1,-4.759818554E0,-2.638490915E0
1.276868192E0,3.285424042E1,-4.745452881E0,-2.621730804E0
1.280867458E0,3.187498093E1,-4.640104771E0,-2.528354168E0
1.282868791E0,3.163315964E1,-4.592218876E0,-2.533142805E0
1.284870124E0,3.111360168E1,-4.484476566E0,-2.518777132E0
1.286871490E0,3.085023117E1,-4.359974384E0,-2.525959969E0
1.288872856E0,3.030912399E1,-4.288146019E0,-2.480468750E0
1.290874189E0,2.972252655E1,-4.173221111E0,-2.415823221E0
1.292875555E0,2.942803192E1,-4.108575344E0,-2.387091875E0
1.294876921E0,2.876242256E1,-4.022381783E0,-2.343995094E0
1.296878254E0,2.805850601E1,-3.938581944E0,-2.355966330E0
1.298879554E0,2.770894241E1,-3.912245035E0,-2.375120640E0
1.300880920E0,2.699784279E1,-3.823656797E0,-2.456526041E0
1.302882420E0,2.627477264E1,-3.713520288E0,-2.566662550E0
1.304883753E0,2.592999649E1,-3.651269197E0,-2.628913641E0
1.306885053E0,2.529311943E1,-3.510006905E0,-2.794118643E0
1.308886386E0,2.470173264E1,-3.354378939E0,-2.942563772E0
1.310887752E0,2.443836212E1,-3.246636629E0,-3.021574736E0
1.314883918E0,2.357642365E1,-2.992843628E0,-3.150865555E0
1.316885251E0,2.304968452E1,-2.882706881E0,-3.143682718E0
1.318886651E0,2.260913658E1,-2.784541607E0,-3.136499882E0
1.320887984E0,2.235055542E1,-2.717501879E0,-3.112557173E0
1.324886950E0,2.151974106E1,-2.446948767E0,-2.777358770E0
1.326891316E0,2.131143951E1,-2.379909277E0,-2.669616461E0
1.328893316E0,2.091399002E1,-2.255406857E0,-2.446948767E0
1.330894682E0,2.066498566E1,-2.135693073E0,-2.281744003E0
1.332896015E0,2.040161514E1,-2.042316437E0,-2.171607256E0
1.334897348E0,1.996585846E1,-1.891477108E0,-1.953728199E0
1.336898714E0,1.965939140E1,-1.790917516E0,-1.824437380E0
1.338900080E0,1.906321526E1,-1.671203852E0,-1.467690468E0
1.340901446E0,1.885730934E1,-1.680780888E0,-1.412622094E0
1.342902779E0,1.864661217E1,-1.625712633E0,-1.403045058E0
1.344903845E0,1.794987869E1,-1.453324795E0,-1.300091267E0
1.346905178E0,1.731060600E1,-1.307274103E0,-1.125309110E0
1.348906511E0,1.723159599E1,-1.290514112E0,-1.223474383E0
1.350907844E0,1.679823112E1,-1.221080184E0,-1.450930476E0
1.352909177E0,1.613980675E1,-1.113337755E0,-1.561067224E0
1.354910477E0,1.576151085E1,-1.063058019E0,-1.585009933E0
1.356911777E0,1.523955917E1,-1.022355318E0,-1.556278586E0
1.358913177E0,1.482534981E1,-1.029538155E0,-1.630501151E0
1.360921377E0,1.455958557E1,-1.070240855E0,-1.673598051E0
1.362922710E0,1.403523922E1,-1.060663700E0,-1.570644259E0
1.364924076E0,1.375032043E1,-1.041509509E0,-1.376708031E0
1.366925476E0,1.311344337E1,-1.065452337E0,-1.656838179E0
1.368926776E0,1.252445126E1,-1.101366401E0,-2.001613855E0
1.370928142E0,1.218446445E1,-1.120520592E0,-2.030344963E0
1.372929475E0,1.152843285E1,-1.137280583E0,-1.951334000E0
1.374930841E0,1.084367085E1,-1.127703428E0,-1.889082789E0
1.376932241E0,1.043664360E1,-1.108549237E0,-1.886688590E0
1.378933574E0,9.598648071E0,-1.041509509E0,-1.836408734E0
1.380934940E0,8.882759094E0,-9.409499764E-1,-1.848380208E0
1.382935173E0,8.542772293E0,-8.715160489E-1,-1.869928598E0
1.384936506E0,7.905895233E0,-6.991282701E-1,-1.946545362E0
1.388935572E0,6.835654736E0,-4.597007632E-1,-2.133298874E0
1.390936872E0,6.014418125E0,-3.064671755E-1,-2.214704275E0
1.392938205E0,5.633728504E0,-2.370332032E-1,-2.128510237E0
1.394939571E0,4.896292210E0,-5.506832153E-2,-2.011190891E0
1.396940904E0,4.211529255E0,1.173194647E-1,-2.425400496E0
1.398942237E0,3.852388144E0,1.771763414E-1,-2.521171331E0
1.400943803E0,3.148471355E0,2.801301479E-1,-2.377514839E0
1.402945169E0,2.581028223E0,4.213923812E-1,-2.140481710E0
1.404946769E0,2.334417820E0,4.788549542E-1,-2.037527800E0
1.406948135E0,1.853168726E0,6.153286099E-1,-1.862745762E0
1.408949468E0,1.577827096E0,7.637736797E-1,-1.764580488E0
1.410950801E0,1.055875182E0,8.260248303E-1,-1.491633177E0
1.412952167E0,5.195576549E-1,9.457385540E-1,-1.180377483E0
1.414953533E0,2.585816681E-1,9.864411950E-1,-9.864411950E-1
1.416954899E0,-2.825244367E-1,1.065452337E0,-6.488484740E-1
1.418956199E0,-8.116591573E-1,1.149251938E0,-3.160442710E-1
1.422951998E0,-1.563461423E0,1.233051538E0,2.059076279E-1
1.424953098E0,-2.044710636E0,1.268965602E0,7.541965842E-1
1.426954431E0,-2.291321039E0,1.331216812E0,6.991282701E-1
1.428955831E0,-2.825244188E0,1.395862222E0,6.081457734E-1
1.430957197E0,-3.349590540E0,1.434170604E0,6.919454336E-1
1.432959097E0,-3.620143414E0,1.446141958E0,7.853221297E-1
1.434960430E0,-4.103786945E0,1.505998850E0,9.696813226E-1
1.436961730E0,-4.340820312E0,1.527547359E0,1.043903828E0
1.438963030E0,-4.805309772E0,1.556278586E0,1.139674783E0
1.440964396E0,-5.241067410E0,1.582615614E0,1.189954638E0
1.442965462E0,-5.478100777E0,1.587404251E0,1.223474383E0
1.444966795E0,-5.880339146E0,1.568249941E0,1.223474383E0
1.446968128E0,-6.217931747E0,1.565855742E0,1.185166001E0
1.448969461E0,-6.399896622E0,1.589798450E0,1.139674783E0
1.450970827E0,-6.711152077E0,1.628106833E0,9.816526771E-1
1.452972227E0,-6.902694225E0,1.644866824E0,8.715160489E-1
1.454973593E0,-7.003253937E0,1.637683988E0,8.571503758E-1
1.456974926E0,-7.278595448E0,1.556278586E0,7.925049663E-1
1.458976292E0,-7.369577885E0,1.398256540E0,7.350423932E-1
1.460977158E0,-7.431828976E0,1.297696948E0,6.009629965E-1
1.462978491E0,-7.369577885E0,1.087000728E0,4.836435020E-1
1.464979824E0,-7.307326794E0,9.768640995E-1,4.644893110E-1
1.466980857E0,-7.158881664E0,7.925049663E-1,4.501236677E-1
1.468982190E0,-6.938608170E0,6.249057055E-1,4.620950520E-1
1.470983556E0,-6.828471661E0,5.458946824E-1,4.860377908E-1
1.472984856E0,-6.608198643E0,3.974496126E-1,4.836435020E-1
1.474986189E0,-6.423839092E0,2.705530524E-1,4.644893110E-1
1.476987555E0,-6.347222328E0,2.202732861E-1,4.501236677E-1
1.478988888E0,-6.146103382E0,1.197137386E-1,4.309694767E-1
1.480992421E0,-5.906675816E0,1.915419847E-2,3.447755575E-1
1.482993787E0,-5.772596359E0,-3.830839694E-2,3.304099143E-1
1.484995353E0,-5.444581032E0,-1.508393139E-1,2.561874092E-1
1.486996719E0,-5.281770229E0,-1.843591630E-1,2.130904645E-1
1.488998052E0,-4.984879971E0,-2.801301479E-1,1.628106833E-1
1.490999318E0,-4.683201313E0,-2.825244367E-1,8.379961550E-2
1.493000084E0,-4.534756660E0,-2.729473412E-1,-4.788549617E-3
1.495001417E0,-4.204346657E0,-1.843591630E-1,-1.987248063E-1
1.497002783E0,-3.902667999E0,-8.619388938E-2,-3.998439014E-1
1.499004183E0,-3.761405706E0,-9.577099234E-3,-4.788549542E-1
1.501005516E0,-3.500429869E0,5.985686928E-2,-5.818088055E-1
1.503007082E0,-3.155654192E0,9.816526622E-2,-6.177229285E-1
1.505008415E0,-2.772570133E0,5.506832153E-2,-5.865973234E-1
1.507009781E0,-2.597788095E0,4.549122229E-2,-5.698373914E-1
1.509011114E0,-2.403851986E0,7.182824425E-3,-5.315290093E-1
1.511012480E0,-2.030344963E0,-1.005595401E-1,-5.004034638E-1
1.513014213E0,-1.711906433E0,-2.298503816E-1,-4.453351200E-1
1.515015513E0,-1.534730196E0,-2.825244367E-1,-4.189980924E-1
1.517016879E0,-1.201925993E0,-3.806896806E-1,-3.998439014E-1
1.519017945E0,-8.786988258E-1,-5.004034638E-1,-3.711125851E-1
1.521019545E0,-7.158881426E-1,-5.458946824E-1,-3.663240373E-1
1.523023345E0,-3.782954216E-1,-6.177229285E-1,-3.351984620E-1
1.525024711E0,-9.098244458E-2,-6.799740195E-1,-3.184385598E-1
1.527026344E0,5.267404765E-2,-6.943396926E-1,-3.208328187E-1
1.529027710E0,3.447755575E-1,-7.685621977E-1,-3.136500120E-1
1.531029043E0,6.225114465E-1,-8.044763207E-1,-3.519583941E-1
1.533030409E0,7.637736797E-1,-8.020820618E-1,-4.046324492E-1
1.535031775E0,1.034326673E0,-7.948992252E-1,-4.429408312E-1
1.537033441E0,1.163617611E0,-7.925049663E-1,-4.692778587E-1
1.539034807E0,1.388679385E0,-7.326480746E-1,-4.692778587E-1
1.543035340E0,1.711906433E0,-6.512427330E-1,-5.243461728E-1
1.545036673E0,1.901054144E0,-5.578660369E-1,-5.458946824E-1
1.547038006E0,2.047105074E0,-4.740664065E-1,-5.219519138E-1
1.549039439E0,2.135693073E0,-4.142095447E-1,-5.075862408E-1
1.551040805E0,2.300898075E0,-2.992843390E-1,-4.692778587E-1
1.553043305E0,2.470891714E0,-1.795706153E-1,-4.405465722E-1
1.555044671E0,2.521171331E0,-1.245022863E-1,-4.213923812E-1
1.557046004E0,2.633702278E0,1.915419847E-2,-4.142095447E-1
1.559047337E0,2.681587696E0,7.422251999E-2,-4.333637357E-1
1.561048670E0,2.727078915E0,2.011190802E-1,-4.213923812E-1
1.563050036E0,2.774964571E0,3.088614643E-1,-4.070267081E-1
1.565051136E0,2.818061352E0,3.926610649E-1,-3.759011328E-1
1.567052436E0,2.810878515E0,4.405465722E-1,-3.687183261E-1
1.569059636E0,2.791724443E0,5.267404318E-1,-3.232271075E-1
1.571060969E0,2.760598898E0,5.746259689E-1,-3.184385598E-1
1.573061869E0,2.688770533E0,6.440598965E-1,-3.112557232E-1
1.575063269E0,2.566662550E0,6.943396926E-1,-3.016786277E-1
1.577067102E0,2.511594296E0,7.206767201E-1,-2.921015322E-1
1.579068702E0,2.327235222E0,7.565908432E-1,-2.657645047E-1
1.581070035E0,2.238646984E0,7.613793612E-1,-2.442160249E-1
1.585070268E0,1.826831698E0,7.446194887E-1,-1.915419847E-1
1.587071634E0,1.740637779E0,7.182824612E-1,-1.867534369E-1
1.589072934E0,1.568249941E0,6.464542150E-1,-1.723877788E-1
1.591074267E0,1.407833576E0,5.722316504E-1,-1.771763414E-1
1.593075633E0,1.324033976E0,5.171633363E-1,-1.963305324E-1
1.595076933E0,1.158828974E0,4.309694767E-1,-2.513988614E-1
1.597077933E0,1.017566800E0,3.399870098E-1,-3.615354896E-1
1.599079266E0,9.361614585E-1,2.944957912E-1,-4.189980924E-1
1.601080566E0,7.565908432E-1,2.657645047E-1,-5.626545548E-1
1.603081899E0,5.698373914E-1,2.202732861E-1,-6.584255695E-1
1.605083232E0,4.620950520E-1,2.298503816E-1,-6.943396926E-1
1.607084598E0,2.609759569E-1,2.226675600E-1,-7.709565163E-1
1.609085831E0,1.508393139E-1,2.011190802E-1,-7.685621977E-1
1.611087197E0,-9.577099234E-3,1.843591630E-1,-7.158881426E-1
1.613087397E0,-1.795706153E-1,1.699935049E-1,-6.943396926E-1
1.615088730E0,-2.753416002E-1,1.604164094E-1,-6.871568561E-1
1.617090063E0,-4.405465722E-1,1.484450400E-1,-6.680026650E-1
1.619091363E0,-5.961744189E-1,1.412622184E-1,-6.632141471E-1
1.621092696E0,-6.823683381E-1,1.508393139E-1,-6.632141471E-1
1.623094062E0,-8.212362528E-1,1.388679445E-1,-6.081457734E-1
1.625095428E0,-9.337671995E-1,1.077423692E-1,-5.435003638E-1
1.627096794E0,-9.840469360E-1,8.379961550E-2,-5.027977228E-1
1.631093294E0,-1.082212210E0,4.309694469E-2,-3.663240373E-1
1.633094660E0,-1.137280583E0,1.197137404E-2,-2.753416002E-1
1.635095993E0,-1.185166001E0,-3.591412306E-2,-1.819648892E-1
1.639096192E0,-1.285725594E0,-8.140534163E-2,-5.506832153E-2
1.641097525E0,-1.345582485E0,-1.101366431E-1,2.394274808E-3
1.643098858E0,-1.357553840E0,-1.292908341E-1,2.633702382E-2
1.645100224E0,-1.379102230E0,-1.484450400E-1,9.816526622E-2
1.647101524E0,-1.405439258E0,-1.987248063E-1,1.843591630E-1
1.649102890E0,-1.393467903E0,-2.083019018E-1,2.154847383E-1
1.651104223E0,-1.419804931E0,-2.418217510E-1,2.825244367E-1
1.653105556E0,-1.429382086E0,-2.801301479E-1,3.040728867E-1
1.655106922E0,-1.405439258E0,-2.801301479E-1,3.447755575E-1
1.657108288E0,-1.429382086E0,-2.873129845E-1,3.543526828E-1
1.659109654E0,-1.450930476E0,-3.160442710E-1,3.591412306E-1
1.661111020E0,-1.496421814E0,-3.543526828E-1,3.735068738E-1
1.663112853E0,-1.508393168E0,-4.094209969E-1,3.950553536E-1
1.665114919E0,-1.513181686E0,-4.405465722E-1,3.926610649E-1
1.667116219E0,-1.494027495E0,-4.836435020E-1,4.094209969E-1
1.669117585E0,-1.484450340E0,-4.836435020E-1,4.357580245E-1
1.671118885E0,-1.455719113E0,-5.004034638E-1,4.549122155E-1
1.673120218E0,-1.395862222E0,-4.956148863E-1,4.836435020E-1
1.675121584E0,-1.333611012E0,-4.644893110E-1,5.554717779E-1
1.677122950E0,-1.285725594E0,-4.549122155E-1,5.842030644E-1
1.679124316E0,-1.228263021E0,-3.974496126E-1,6.895511150E-1
1.681125682E0,-1.187560320E0,-3.711125851E-1,7.398309112E-1
1.683126982E0,-1.177983165E0,-3.375927508E-1,8.212362528E-1
1.685128548E0,-1.177983165E0,-2.825244367E-1,8.954587579E-1
1.687129914E0,-1.170800328E0,-2.657645047E-1,9.002473354E-1
1.689131547E0,-1.182771802E0,-2.178790122E-1,9.050358534E-1
1.691132913E0,-1.192348838E0,-1.556278616E-1,9.098244309E-1
1.693134279E0,-1.166011810E0,-1.436564922E-1,8.978530765E-1
1.695135579E0,-1.089395046E0,-1.173194647E-1,9.241901040E-1
1.697136912E0,-1.039115310E0,-1.005595401E-1,9.241901040E-1
1.699138245E0,-9.960182905E-1,-1.029538140E-1,9.289786220E-1
1.701139578E0,-9.696813226E-1,-1.005595401E-1,9.385557175E-1
1.703140911E0,-9.433442950E-1,-6.943397224E-2,9.577099085E-1
1.705142244E0,-8.571503758E-1,-6.703969836E-2,9.888355136E-1
1.707149477E0,-7.589851022E-1,-4.788549617E-2,1.024749637E0
1.709150843E0,-6.823683381E-1,-2.633702382E-2,1.041509509E0
1.711152209E0,-5.291347504E-1,-3.351984918E-2,1.055875182E0
1.713153542E0,-3.663240373E-1,-1.675992459E-2,1.039115310E0
1.715154875E0,-2.968900800E-1,-3.351984918E-2,1.031932473E0
1.717157341E0,-1.077423692E-1,-1.436564885E-2,1.046298146E0
1.719158374E0,1.149251908E-1,-3.830839694E-2,1.098972082E0
1.721159707E0,2.370332032E-1,-4.070267081E-2,1.144463301E0
1.723160540E0,4.549122155E-1,-4.070267081E-2,1.192348838E0
1.725161140E0,6.919454336E-1,-3.830839694E-2,1.139674783E0
1.727162540E0,8.212362528E-1,-5.267404765E-2,1.065452337E0
1.729163873E0,1.058269501E0,-5.746259540E-2,8.284190893E-1
1.731165039E0,1.139674783E0,-4.788549617E-2,6.943396926E-1
1.733166405E0,1.321639657E0,-2.394274808E-2,3.375927508E-1
1.735167705E0,1.539518714E0,-4.788549617E-3,2.394274808E-2
1.737169038E0,1.652049661E0,-4.788549617E-3,-8.858817071E-2
1.739170404E0,1.831620216E0,1.197137404E-2,-2.609759569E-1
1.741171537E0,2.066259146E0,-2.154847234E-2,-2.849186957E-1
1.743172903E0,2.185972929E0,-2.394274808E-2,-2.490045726E-1
1.745174969E0,2.487651587E0,-6.943397224E-2,-9.577099234E-2
1.747176269E0,2.873129845E0,-1.412622184E-1,8.140534163E-2
1.749177602E0,3.100585938E0,-2.274561077E-1,1.891477108E-1
1.751178968E0,3.581835032E0,-3.447755575E-1,4.166038036E-1
1.753180301E0,3.821262598E0,-4.812492430E-1,5.291347504E-1
1.755181634E0,4.249837875E0,-5.602602959E-1,6.727912426E-1
1.757183000E0,4.719115734E0,-7.110996246E-1,7.206767201E-1
1.759184333E0,4.953754425E0,-7.925049663E-1,6.967339516E-1
1.761185699E0,5.439792156E0,-9.241901040E-1,6.033572555E-1
1.763187065E0,5.923435688E0,-1.046298146E0,4.166038036E-1
1.765188131E0,6.136526108E0,-1.125309110E0,3.184385598E-1
1.769184930E0,6.957762718E0,-1.537124395E0,-1.675992459E-2
1.771186263E0,7.170853138E0,-1.690358043E0,-7.661679387E-2
1.773187596E0,7.673650742E0,-1.996825218E0,-2.250618339E-1
1.775188929E0,8.245882034E0,-2.358360767E0,-2.992843390E-1
1.777189129E0,8.552350044E0,-2.518777132E0,-4.213923812E-1
1.779190762E0,9.205986977E0,-2.832427025E0,-5.315290093E-1
1.781192128E0,9.565128326E0,-2.985660791E0,-5.746259689E-1
1.783193494E0,1.029298782E1,-3.239453793E0,-6.296942830E-1
1.785194894E0,1.110943508E1,-3.440572977E0,-6.680026650E-1
1.787196227E0,1.154758739E1,-3.510006905E0,-6.703969240E-1
1.789197660E0,1.245741177E1,-3.600989342E0,-6.895511150E-1
1.791199193E0,1.351089287E1,-3.629720688E0,-7.757450342E-1
1.793200526E0,1.410706711E1,-3.617749214E0,-8.427847624E-1
1.795201926E0,1.538321590E1,-3.459727049E0,-1.101366401E0
1.797203826E0,1.683654022E1,-3.375927448E0,-1.347976685E0
1.799205159E0,1.767693138E1,-3.395081758E0,-1.486844659E0
1.801206659E0,1.951573372E1,-3.488458395E0,-1.807677507E0
1.803208025E0,2.046147346E1,-3.550709486E0,-1.977671027E0
1.805208625E0,2.356205750E1,-3.830839634E0,-2.657644987E0
1.807209991E0,2.459159660E1,-3.964919090E0,-2.971295118E0
1.809211357E0,2.573605919E1,-4.091815472E0,-3.344801903E0
1.811212690E0,2.792682076E1,-4.410254002E0,-4.206740856E0
1.813214023E0,3.026363373E1,-4.783761024E0,-5.157268047E0
1.815215423E0,3.141767311E1,-4.994457245E0,-5.681613922E0
1.817216756E0,3.395560455E1,-5.545140266E0,-6.627352715E0
1.819218056E0,3.651269150E1,-5.978504181E0,-7.324086666E0
1.821219389E0,3.772419357E1,-6.103006363E0,-7.652102470E0
1.823220722E0,3.971383667E1,-6.289760113E0,-8.114197731E0
1.825222322E0,4.039381027E1,-6.426233768E0,-8.162082672E0
1.827223688E0,4.135870361E1,-6.555524349E0,-8.107014656E0
1.829225021E0,4.240500259E1,-6.761432171E0,-7.793364525E0
1.831226487E0,4.314243698E1,-6.895511627E0,-7.496474266E0
1.833227853E0,4.486870956E1,-7.120573044E0,-6.601015568E0
1.835229186E0,4.595571136E1,-7.280989647E0,-5.566689014E0
1.837230519E0,4.641301727E1,-7.369577885E0,-5.061496735E0
1.839231852E0,4.686314011E1,-7.656890869E0,-4.067873001E0
1.841233885E0,4.597726059E1,-7.824490070E0,-3.359167576E0
1.843235218E0,4.510095596E1,-7.750267506E0,-3.143682718E0
1.845236518E0,4.296525955E1,-7.316903591E0,-2.782147408E0
1.847237818E0,4.135152054E1,-6.749460697E0,-2.521171331E0
1.849239084E0,4.067154694E1,-6.421444893E0,-2.418217659E0
1.851240417E0,3.934751129E1,-5.782173634E0,-2.221887112E0
1.853241750E0,3.870824051E1,-5.444581032E0,-2.188367128E0
1.855243083E0,3.739617920E1,-4.829252243E0,-2.269772530E0
1.857243816E0,3.598355484E1,-4.161249638E0,-2.506805658E0
1.859245116E0,3.528203201E1,-3.859570980E0,-2.695953369E0
1.861246482E0,3.402743530E1,-3.284945011E0,-3.170019865E0
1.863247815E0,3.295479965E1,-2.830032825E0,-3.636903524E0
1.865249181E0,3.209764862E1,-2.454131603E0,-3.969707727E0
1.867250514E0,3.176005554E1,-2.298503876E0,-4.048718929E0
1.869251847E0,3.124528694E1,-2.008796453E0,-4.034353256E0
1.871253180E0,3.106332207E1,-1.893871427E0,-3.924216509E0
1.873254513E0,3.080234528E1,-1.664021015E0,-3.505218267E0
1.875255813E0,3.071615219E1,-1.455719113E0,-3.251425266E0
1.877257113E0,3.070657349E1,-1.386285067E0,-2.645673752E0
1.879258513E0,3.079276848E1,-1.245022893E0,-2.138087511E0
1.881259879E0,3.090769386E1,-1.201925993E0,-1.898659945E0
1.883261212E0,3.128598976E1,-1.201925993E0,-1.647261024E0
1.885262345E0,3.181512451E1,-1.352765322E0,-1.585009933E0
1.887263678E0,3.209764862E1,-1.453324795E0,-1.623318315E0
1.889265011E0,3.269861221E1,-1.711906433E0,-1.793311834E0
1.891266244E0,3.330196762E1,-2.020767927E0,-2.059076309E0
1.893267544E0,3.357970428E1,-2.214704275E0,-2.205127001E0
1.895269144E0,3.408010864E1,-2.602576733E0,-2.509200096E0
1.897270510E0,3.452544403E1,-2.971295118E0,-2.664827824E0
1.899271876E0,3.470980072E1,-3.148471355E0,-2.935380936E0
1.901272509E0,3.502824020E1,-3.493247032E0,-3.100585938E0
1.903273842E0,3.514316559E1,-3.641691923E0,-3.141288519E0
1.905275208E0,3.532034302E1,-3.967313290E0,-3.174808502E0
1.907276574E0,3.541850662E1,-4.233078003E0,-3.114951611E0
1.909277907E0,3.539695740E1,-4.352791786E0,-3.057488918E0
1.911279240E0,3.516950226E1,-4.556304932E0,-2.901860952E0
1.913280573E0,3.471459198E1,-4.723904133E0,-2.739050388E0
1.915281906E0,3.439615250E1,-4.762212753E0,-2.691164970E0
1.917283306E0,3.371617889E1,-4.850800991E0,-2.561874151E0
1.919284672E0,3.297634506E1,-4.872349262E0,-2.439765930E0
1.921286005E0,3.258368683E1,-4.869955063E0,-2.382303476E0
1.923287071E0,3.173371887E1,-4.836435318E0,-2.298503876E0
1.925288437E0,3.083825874E1,-4.726298332E0,-2.346389294E0
1.927293837E0,3.035222244E1,-4.623344421E0,-2.420611858E0
1.929294937E0,2.939211845E1,-4.403071404E0,-2.597788095E0
1.931296170E0,2.891086769E1,-4.283357620E0,-2.712713242E0
1.933297536E0,2.799625587E1,-4.029564381E0,-2.930592299E0
1.935298902E0,2.712713432E1,-3.761405706E0,-3.093403101E0
1.937300302E0,2.670813560E1,-3.644086361E0,-3.150865555E0
1.939301602E0,2.590365982E1,-3.395081758E0,-3.189173937E0
1.941302935E0,2.520692444E1,-3.186779737E0,-3.196356773E0
1.943304301E0,2.486693764E1,-3.112557173E0,-3.150865555E0
1.945305867E0,2.427076340E1,-2.964112282E0,-3.074248791E0
1.947307200E0,2.374641800E1,-2.808484316E0,-3.007209063E0
1.949308566E0,2.347347069E1,-2.734261751E0,-2.928198099E0
1.951310866E0,2.292757607E1,-2.569056988E0,-2.832427025E0
1.953312199E0,2.266181183E1,-2.463708878E0,-2.779752970E0
1.955313299E0,2.204408836E1,-2.260195494E0,-2.674404860E0
1.957314632E0,2.146706772E1,-2.111750364E0,-2.576239586E0
1.959315965E0,2.120130348E1,-2.015979290E0,-2.511594296E0
1.961317331E0,2.063625526E1,-1.845985889E0,-2.377514839E0
1.963318664E0,2.018852425E1,-1.659232497E0,-2.257801056E0
1.965319830E0,1.986769295E1,-1.544307232E0,-2.231464148E0
1.967321196E0,1.907279396E1,-1.345582485E0,-1.980065227E0
1.969322529E0,1.848380089E1,-1.163617611E0,-1.762186289E0
1.971323895E0,1.818212318E1,-1.036720991E0,-1.671203852E0
1.973325261E0,1.742313766E1,-7.805336118E-1,-1.568249941E0
1.975326561E0,1.709991074E1,-6.727912426E-1,-1.496421814E0
1.977327894E0,1.641514778E1,-4.932205975E-1,-1.458113313E0
1.979329260E0,1.577827072E1,-3.519583941E-1,-1.388679385E0
1.981330626E0,1.545265007E1,-2.921015322E-1,-1.336005330E0
1.983332226E0,1.483492661E1,-2.059076279E-1,-1.336005330E0
1.985333526E0,1.424593544E1,-2.106961906E-1,-1.268965602E0
1.987336792E0,1.383411980E1,-2.059076279E-1,-1.233051538E0
1.989338358E0,1.321400261E1,-2.178790122E-1,-1.142069101E0
1.991339824E0,1.250050831E1,-2.322446555E-1,-9.385557175E-1
1.993341157E0,1.211981869E1,-2.609759569E-1,-8.571503758E-1
1.995342523E0,1.144942188E1,-3.639297783E-1,-8.020820618E-1
1.997343856E0,1.109028053E1,-4.381522834E-1,-8.068706393E-1
1.999345222E0,1.034805584E1,-4.620950520E-1,-8.499675393E-1
2.001346588E0,9.617801666E0,-5.147690773E-1,-9.744698405E-1
2.003347888E0,9.220352173E0,-5.530774593E-1,-1.046298146E0
2.005349221E0,8.356019020E0,-6.201171875E-1,-1.225868702E0
2.007350554E0,7.640130997E0,-6.799740195E-1,-1.393467903E0
2.009351887E0,7.326480865E0,-7.039167881E-1,-1.458113313E0
2.011352220E0,6.605803967E0,-7.278595567E-1,-1.616135478E0
2.013353620E0,5.825270653E0,-7.470137477E-1,-1.695146561E0
2.015354953E0,5.442186832E0,-7.470137477E-1,-1.723877907E0
2.017356286E0,4.757423878E0,-7.494080067E-1,-1.731060743E0
2.019357619E0,4.060689926E0,-6.943396926E-1,-1.709512234E0
2.021358919E0,3.718308687E0,-6.560313106E-1,-1.711906433E0
2.023360285E0,3.043123245E0,-5.650488734E-1,-1.678386688E0
2.025361785E0,2.715107679E0,-5.147690773E-1,-1.654443860E0
2.027363118E0,2.054287672E0,-4.022381604E-1,-1.549095750E0
2.029364418E0,1.467690468E0,-2.705530524E-1,-1.410227895E0
2.031365784E0,1.273754239E0,-2.106961906E-1,-1.347976685E0
2.033367084E0,5.315290093E-1,0.000000000E0,-1.187560320E0
2.035368450E0,-5.027977005E-2,1.628106833E-1,-9.050358534E-1
2.037369850E0,-2.753416002E-1,2.801301479E-1,-8.906702399E-1
2.039371183E0,-1.211503029E0,4.692778587E-1,-5.865973234E-1
2.041372483E0,-1.860351562E0,5.051919818E-1,1.268965602E-1
2.043373816E0,-2.111750364E0,4.956148863E-1,3.663240373E-1
2.045375149E0,-2.490045786E0,5.818088055E-1,2.537931204E-1
2.049371848E0,-2.973689318E0,5.602602959E-1,4.429408312E-1
2.051373148E0,-3.409447432E0,5.027977228E-1,7.541965842E-1
2.053374481E0,-3.624932051E0,4.381522834E-1,9.912297726E-1
2.055375814E0,-4.027170181E0,3.902668059E-1,1.108549237E0
2.057377147E0,-4.393494129E0,3.902668059E-1,9.337671995E-1
2.059378480E0,-4.577853203E0,3.950553536E-1,8.930644989E-1
2.061379813E0,-4.922628880E0,3.830839694E-1,9.241901040E-1
2.063381179E0,-5.348809719E0,3.878725171E-1,9.170072675E-1
2.065382545E0,-5.571477413E0,4.022381604E-1,8.858816624E-1
2.067383911E0,-5.961744308E0,4.309694767E-1,7.877163887E-1
2.069385211E0,-6.347222328E0,4.620950520E-1,7.039167881E-1
2.071386611E0,-6.541158676E0,4.764606953E-1,6.847625971E-1
2.073387911E0,-6.869174480E0,4.620950520E-1,8.092648983E-1
2.075389277E0,-7.031985283E0,5.004034638E-1,6.991282701E-1
2.077390610E0,-7.326480865E0,5.865973234E-1,4.740664065E-1
2.079392676E0,-7.549148560E0,6.512427330E-1,3.854782581E-1
2.081394042E0,-7.623371124E0,6.703969240E-1,4.118152559E-1
2.083395408E0,-7.704776287E0,7.110996246E-1,4.453351200E-1
2.085396741E0,-7.755055904E0,7.637736797E-1,5.291347504E-1
2.087398041E0,-7.752661705E0,7.829278708E-1,5.770202279E-1
2.089399141E0,-7.726325035E0,8.356019258E-1,6.847625971E-1
2.091400474E0,-7.585062504E0,8.978530765E-1,7.422251701E-1
2.093401840E0,-7.470137596E0,9.337671995E-1,7.278595567E-1
2.095403206E0,-7.245075703E0,9.457385540E-1,7.158881426E-1
2.097404506E0,-7.099024773E0,9.409499764E-1,6.512427330E-1
2.099405806E0,-6.785374641E0,9.074301720E-1,5.506832004E-1
2.101407206E0,-6.478907585E0,8.715160489E-1,4.381522834E-1
2.103408572E0,-6.299336910E0,8.260248303E-1,3.950553536E-1
2.105409905E0,-5.676825523E0,7.182824612E-1,2.705530524E-1
2.107411971E0,-5.442186832E0,6.919454336E-1,2.154847383E-1
2.109413337E0,-5.202759266E0,6.201171875E-1,1.819648892E-1
2.111414703E0,-4.743058205E0,5.363175869E-1,9.577099234E-2
2.113416069E0,-4.290540695E0,4.094209969E-1,3.591412306E-2
2.115417402E0,-4.082238674E0,3.615354896E-1,7.182824425E-3
2.117418735E0,-3.612960577E0,2.537931204E-1,-8.140534163E-2
2.119420068E0,-3.373533249E0,1.412622184E-1,-1.460507661E-1
2.121421368E0,-2.885101080E0,9.816526622E-2,-2.777358890E-1
2.123422701E0,-2.415823221E0,1.436564885E-2,-3.663240373E-1
2.125424034E0,-2.188367128E0,-2.394274808E-2,-4.189980924E-1
2.127425367E0,-1.771763325E0,-1.628106833E-1,-4.692778587E-1
2.129426733E0,-1.350371003E0,-2.298503816E-1,-4.836435020E-1
2.131428066E0,-1.144463301E0,-2.729473412E-1,-5.099805593E-1
2.133429432E0,-7.853221297E-1,-3.591412306E-1,-5.435003638E-1
2.135430465E0,-4.453351200E-1,-4.381522834E-1,-5.411061049E-1
2.137431798E0,-2.944957912E-1,-4.692778587E-1,-5.267404318E-1
2.139432131E0,1.915419847E-2,-5.602602959E-1,-5.195576549E-1
2.141433497E0,3.304099143E-1,-5.937801600E-1,-5.339232683E-1
2.143434797E0,4.764606953E-1,-5.985686779E-1,-5.506832004E-1
2.145436163E0,7.877163887E-1,-5.889915824E-1,-5.985686779E-1
2.147437529E0,9.146129489E-1,-5.913859010E-1,-6.081457734E-1
2.149440262E0,1.137280583E0,-5.746259689E-1,-6.057515144E-1
2.151441595E0,1.300091267E0,-5.291347504E-1,-6.081457734E-1
2.153442961E0,1.381496549E0,-5.219519138E-1,-5.818088055E-1
2.155444294E0,1.503604531E0,-4.836435020E-1,-5.482889414E-1
2.157445627E0,1.606558442E0,-4.381522834E-1,-5.482889414E-1
2.159447027E0,1.671203852E0,-4.309694767E-1,-5.602602959E-1
2.161448360E0,1.769369125E0,-3.806896806E-1,-6.392713785E-1
2.163449693E0,1.903448462E0,-3.375927508E-1,-7.302538157E-1
2.165450793E0,2.018373728E0,-2.609759569E-1,-7.996878028E-1
2.167451426E0,2.056682110E0,-2.322446555E-1,-8.284190893E-1
2.169452726E0,2.097384691E0,-2.154847383E-1,-8.475732803E-1
2.171460392E0,2.205127001E0,-1.460507661E-1,-8.882759809E-1
2.173462592E0,2.267378330E0,-1.029538140E-1,-9.098244309E-1
2.175463925E0,2.312869549E0,-7.182824612E-2,-9.098244309E-1
2.177465258E0,2.358360767E0,1.197137404E-2,-9.074301720E-1
2.179466324E0,2.389486313E0,8.858817071E-2,-9.146129489E-1
2.181467690E0,2.394274712E0,1.316851079E-1,-9.361614585E-1
2.183469023E0,2.408640385E0,2.106961906E-1,-9.289786220E-1
2.185470323E0,2.425400496E0,3.088614643E-1,-8.858816624E-1
2.187471656E0,2.415823221E0,3.567469418E-1,-8.643332124E-1
2.189472956E0,2.406246185E0,4.429408312E-1,-8.020820618E-1
2.191474289E0,2.346389294E0,5.171633363E-1,-7.877163887E-1
2.193475622E0,2.291321039E0,5.435003638E-1,-7.158881426E-1
2.195477255E0,2.188367128E0,6.057515144E-1,-6.536370516E-1
2.197478621E0,2.121327400E0,6.344828010E-1,-5.961744189E-1
2.199480354E0,1.980065227E0,7.230709791E-1,-5.099805593E-1
2.201481687E0,1.788523316E0,7.613793612E-1,-4.357580245E-1
2.203483053E0,1.711906433E0,7.877163887E-1,-4.213923812E-1
2.205484419E0,1.525153041E0,8.188419938E-1,-3.471698463E-1
2.207485785E0,1.316851139E0,8.284190893E-1,-3.280156553E-1
2.209486018E0,1.204320192E0,8.212362528E-1,-2.921015322E-1
2.211487351E0,1.010383964E0,8.260248303E-1,-2.537931204E-1
2.213488684E0,8.164477348E-1,8.116591573E-1,-2.705530524E-1
2.215490017E0,7.350423932E-1,7.972934842E-1,-2.657645047E-1
2.217491383E0,5.482889414E-1,7.422251701E-1,-2.873129845E-1
2.219492716E0,4.525179267E-1,6.919454336E-1,-2.944957912E-1
2.221494049E0,2.897072434E-1,6.416656375E-1,-3.040728867E-1
2.223495415E0,1.388679445E-1,5.937801600E-1,-3.184385598E-1
2.225496748E0,9.577099234E-3,5.411061049E-1,-3.280156553E-1
2.227498048E0,-6.703969836E-2,5.051919818E-1,-3.208328187E-1
2.229499448E0,-2.059076279E-1,4.189980924E-1,-2.897072434E-1
2.233494914E0,-4.189980924E-1,3.328042030E-1,-2.537931204E-1
2.235496280E0,-5.578660369E-1,2.705530524E-1,-2.442160249E-1
2.237497613E0,-6.057515144E-1,2.561874092E-1,-2.657645047E-1
2.239499246E0,-7.230709791E-1,1.795706153E-1,-2.298503816E-1
2.241500579E0,-7.853221297E-1,9.098244458E-2,-2.250618339E-1
2.243501945E0,-8.930644989E-1,6.464541703E-2,-2.418217510E-1
2.245503311E0,-9.792584181E-1,3.351984918E-2,-2.322446555E-1
2.247504644E0,-1.015172482E0,-2.394274808E-3,-2.274561077E-1
2.249506044E0,-1.091789365E0,-7.901106775E-2,-2.250618339E-1
2.251507710E0,-1.161223292E0,-1.245022863E-1,-2.059076279E-1
2.253509043E0,-1.197137356E0,-1.388679445E-1,-2.035133541E-1
2.255510376E0,-1.276148438E0,-1.771763414E-1,-2.537931204E-1
2.257511709E0,-1.326428294E0,-2.035133541E-1,-2.633702159E-1
2.259512942E0,-1.357553840E0,-2.083019018E-1,-2.777358890E-1
2.261514242E0,-1.417410731E0,-2.609759569E-1,-2.466102988E-1
2.263515308E0,-1.489238977E0,-2.825244367E-1,-2.011190802E-1
2.265516374E0,-1.498816013E0,-3.016786277E-1,-1.747820675E-1
2.267517707E0,-1.582615614E0,-3.136500120E-1,-9.337671846E-2
2.269519040E0,-1.596981287E0,-3.136500120E-1,-6.225114316E-2
2.271520406E0,-1.656838179E0,-3.184385598E-1,-1.675992459E-2
2.273521739E0,-1.685569525E0,-3.351984620E-1,7.661679387E-2
2.275523105E0,-1.699935079E0,-3.280156553E-1,1.101366431E-1
2.277524438E0,-1.731060743E0,-3.447755575E-1,1.412622184E-1
2.279525771E0,-1.745426297E0,-3.567469418E-1,1.580221355E-1
2.281527137E0,-1.755003452E0,-3.495641351E-1,1.532335877E-1
2.283528470E0,-1.771763325E0,-3.782954216E-1,1.292908341E-1
2.285530070E0,-1.793311834E0,-3.902668059E-1,1.101366431E-1
2.287531436E0,-1.795706153E0,-3.806896806E-1,9.337671846E-2
2.289532769E0,-1.822043180E0,-3.663240373E-1,4.070267081E-2
2.291533835E0,-1.848380208E0,-3.615354896E-1,7.182824425E-3
2.293535201E0,-1.857957244E0,-3.591412306E-1,2.394274808E-3
2.295536501E0,-1.855562925E0,-3.112557232E-1,-2.394274808E-3
2.297537567E0,-1.853168726E0,-2.968900800E-1,-4.788549617E-3
2.299538600E0,-1.805283189E0,-2.585816681E-1,4.788549617E-3
2.301539933E0,-1.757397652E0,-2.657645047E-1,9.577099234E-3
2.303541233E0,-1.735849261E0,-2.633702159E-1,4.788549617E-3
2.305542566E0,-1.673598051E0,-2.657645047E-1,7.182824425E-3
2.307543899E0,-1.573038578E0,-2.729473412E-1,1.675992459E-2
2.309544965E0,-1.525153041E0,-2.777358890E-1,4.070267081E-2
2.311545965E0,-1.438959122E0,-2.537931204E-1,4.788549617E-2
2.313547065E0,-1.338399649E0,-2.705530524E-1,7.661679387E-2
2.315548431E0,-1.304879785E0,-2.705530524E-1,1.268965602E-1
2.317549764E0,-1.264177084E0,-2.825244367E-1,1.891477108E-1
2.319551130E0,-1.223474383E0,-2.801301479E-1,2.705530524E-1
2.321552463E0,-1.209108829E0,-3.016786277E-1,3.208328187E-1
2.323554096E0,-1.161223292E0,-3.232271075E-1,4.118152559E-1
2.325555662E0,-1.127703428E0,-3.471698463E-1,4.501236677E-1
2.327556995E0,-1.101366401E0,-3.878725171E-1,5.578660369E-1
2.329558361E0,-1.091789365E0,-4.118152559E-1,6.703969240E-1
2.331559694E0,-1.060663700E0,-4.142095447E-1,7.206767201E-1
2.333561027E0,-1.003201127E0,-4.620950520E-1,8.547561169E-1
2.335562360E0,-9.265843630E-1,-5.123748183E-1,9.409499764E-1
2.337563660E0,-8.763045669E-1,-5.075862408E-1,9.720755816E-1
2.339564993E0,-7.637736797E-1,-5.171633363E-1,1.041509509E0
2.341566326E0,-7.039167881E-1,-5.195576549E-1,1.070240855E0
2.343567626E0,-5.171633363E-1,-5.075862408E-1,1.113337755E0
2.345569026E0,-3.519583941E-1,-5.171633363E-1,1.170800328E0
2.347570359E0,-2.705530524E-1,-5.123748183E-1,1.201925993E0
2.349571659E0,-1.245022863E-1,-4.980091453E-1,1.233051538E0
2.351573292E0,7.422251999E-2,-5.195576549E-1,1.278542757E0
2.353574658E0,1.771763414E-1,-4.956148863E-1,1.254600048E0
2.355576024E0,3.782954216E-1,-4.980091453E-1,1.185166001E0
2.357577690E0,5.219519138E-1,-5.099805593E-1,9.744698405E-1
2.359579356E0,6.177229285E-1,-5.219519138E-1,8.260248303E-1
2.361580722E0,8.188419938E-1,-5.315290093E-1,4.764606953E-1
2.363582122E0,9.840469360E-1,-5.458946824E-1,3.232271075E-1
2.365583488E0,1.072635174E0,-5.530774593E-1,3.830839694E-2
2.367584854E0,1.259388566E0,-5.554717779E-1,-5.267404765E-2
2.369586554E0,1.398256540E0,-5.818088055E-1,-3.591412306E-2
2.371587887E0,1.699935079E0,-6.320885420E-1,1.412622184E-1
2.373589453E0,2.063864946E0,-6.967339516E-1,4.429408312E-1
2.375590819E0,2.260195494E0,-7.326480746E-1,5.818088055E-1
2.377592185E0,2.655250788E0,-8.451790214E-1,9.074301720E-1
2.379593485E0,3.086220264E0,-9.720755816E-1,1.225868702E0
2.381594885E0,3.311282158E0,-1.046298146E0,1.340793848E0
2.383596218E0,3.694365978E0,-1.154040456E0,1.470084786E0
2.385597551E0,4.077449799E0,-1.247417212E0,1.422199249E0
2.387598884E0,4.273780346E0,-1.307274103E0,1.338399649E0
2.389600184E0,4.604190350E0,-1.352765322E0,1.022355318E0
2.391601517E0,4.786155224E0,-1.376708031E0,8.260248303E-1
2.393602850E0,5.138113976E0,-1.403045058E0,3.735068738E-1
2.395604183E0,5.535563469E0,-1.450930476E0,-6.464541703E-2
2.397605549E0,5.767807961E0,-1.446141958E0,-2.825244367E-1
2.399606649E0,6.258634567E0,-1.489238977E0,-6.344828010E-1
2.401607982E0,6.850020409E0,-1.539518714E0,-8.356019258E-1
2.403609348E0,7.156487465E0,-1.553884387E0,-8.571503758E-1
2.405610681E0,7.829278469E0,-1.635289669E0,-7.422251701E-1
2.407617914E0,8.657697678E0,-1.790917516E0,-4.812492430E-1
2.409619280E0,9.126976013E0,-1.845985889E0,-3.328042030E-1
2.411620613E0,1.019242764E1,-2.013585091E0,-9.098244458E-2
2.413621946E0,1.135604572E1,-2.087807655E0,-2.394274808E-3
2.415623279E0,1.196897984E1,-2.135693073E0,1.388679445E-1
2.417624612E0,1.328583050E1,-2.205127001E0,2.490045726E-1
2.419625912E0,1.398735332E1,-2.217098475E0,2.944957912E-1
2.421627245E0,1.554842091E1,-2.195549965E0,3.830839694E-1
2.423628545E0,1.731539536E1,-2.193155766E0,3.112557232E-1
2.425629845E0,1.831620216E1,-2.193155766E0,2.322446555E-1
2.427631211E0,2.060273552E1,-2.174001455E0,-2.394274808E-3
2.429632477E0,2.319094658E1,-2.166818619E0,-3.064671755E-1
2.431633843E0,2.461553955E1,-2.145270348E0,-5.315290093E-1
2.433635243E0,2.745514870E1,-2.027950764E0,-1.194743156E0
2.435636576E0,3.038095284E1,-1.776551962E0,-2.183578730E0
2.437637909E0,3.198272324E1,-1.687963724E0,-2.707924843E0
2.439639309E0,3.509767532E1,-1.723877907E0,-3.802108288E0
2.441640642E0,3.658451843E1,-1.867534399E0,-4.424619675E0
2.443641975E0,3.914399719E1,-2.408640385E0,-5.770202160E0
2.445643375E0,4.128208542E1,-3.351984739E0,-7.125361919E0
2.447644708E0,4.235472107E1,-3.960130453E0,-7.558725357E0
2.449646074E0,4.414324570E1,-5.176422119E0,-7.968146324E0
2.451647440E0,4.592458344E1,-6.244268894E0,-7.939415455E0
2.453648806E0,4.688947678E1,-6.670449734E0,-7.822095871E0
2.455650139E0,4.815365601E1,-7.379155159E0,-7.460560322E0
2.457651472E0,4.782324600E1,-8.128562927E0,-6.952973843E0
2.459653038E0,4.734199524E1,-8.413481712E0,-6.682421207E0
2.461654338E0,4.622147369E1,-8.616994858E0,-5.968926907E0
2.463655671E0,4.567079163E1,-8.540378571E0,-5.530774593E0
2.465656971E0,4.410972595E1,-7.750267506E0,-4.098998547E0
2.469653770E0,4.275695801E1,-6.984099388E0,-3.256213665E0
2.471655070E0,4.117673874E1,-6.241874218E0,-2.631308079E0
2.473656403E0,3.948877335E1,-5.609786034E0,-2.370332003E0
2.475657769E0,3.859810257E1,-5.329655647E0,-2.315263748E0
2.477659069E0,3.689817047E1,-4.968120098E0,-2.272166729E0
2.479660435E0,3.514556122E1,-4.690384388E0,-2.248224020E0
2.481661801E0,3.425967789E1,-4.482082367E0,-2.267378330E0
2.483663134E0,3.246397400E1,-4.132518291E0,-2.322446585E0
2.485664500E0,3.089811707E1,-3.787742853E0,-2.310475111E0
2.487665833E0,3.019898796E1,-3.629720688E0,-2.284138203E0
2.489667166E0,2.904015923E1,-3.253819466E0,-2.217098475E0
2.491668532E0,2.859243011E1,-3.093403101E0,-2.224281311E0
2.493670698E0,2.785738754E1,-2.762993097E0,-2.272166729E0
2.495671998E0,2.739768600E1,-2.461314440E0,-2.446948767E0
2.497673098E0,2.728754997E1,-2.334417820E0,-2.537931204E0
2.499674431E0,2.724684715E1,-2.152452946E0,-2.636096478E0
2.501676564E0,2.762753677E1,-2.027950764E0,-2.753416061E0
2.503677930E0,2.786935806E1,-2.004008055E0,-2.810878515E0
2.505679263E0,2.855651474E1,-2.011190891E0,-2.880312681E0
2.507680629E0,2.941127205E1,-2.142875910E0,-2.892283916E0
2.509681995E0,2.989731026E1,-2.209915638E0,-2.887495518E0
2.511683061E0,3.085980797E1,-2.399063349E0,-2.789330244E0
2.513684394E0,3.132190323E1,-2.492439985E0,-2.712713242E0
2.515685760E0,3.232989120E1,-2.727078915E0,-2.516382933E0
2.517687126E0,3.321577454E1,-2.980872154E0,-2.291321039E0
2.519688459E0,3.363477325E1,-3.112557173E0,-2.200338602E0
2.521689825E0,3.438657379E1,-3.476486921E0,-1.968093872E0
2.523691191E0,3.508330917E1,-3.878725290E0,-1.711906433E0
2.525692557E0,3.572976303E1,-4.314483166E0,-1.510787368E0
2.527693923E0,3.599792099E1,-4.529967785E0,-1.426987767E0
2.529695289E0,3.649832535E1,-4.936994553E0,-1.276148438E0
2.531696622E0,3.662043381E1,-5.162056446E0,-1.223474383E0
2.533697988E0,3.675690842E1,-5.537957668E0,-1.218685865E0
2.535699288E0,3.676409149E1,-5.904281616E0,-1.199531674E0
2.537700654E0,3.665155792E1,-6.045543671E0,-1.259388566E0
2.539702020E0,3.626847458E1,-6.246663094E0,-1.400650740E0
2.541703353E0,3.598116302E1,-6.313702583E0,-1.450930476E0
2.543704719E0,3.536583328E1,-6.335251331E0,-1.539518714E0
2.545706085E0,3.452544403E1,-6.287365437E0,-1.630501151E0
2.547707385E0,3.406334686E1,-6.234691620E0,-1.685569525E0
2.549708718E0,3.298831940E1,-6.086246490E0,-1.776551962E0
2.551710018E0,3.183188438E1,-5.870761871E0,-1.814860344E0
2.553710218E0,3.126922989E1,-5.753442287E0,-1.819648862E0
2.555711418E0,3.012715912E1,-5.499649048E0,-1.800494671E0
2.557713084E0,2.896833038E1,-5.224307537E0,-1.769369125E0
2.559714417E0,2.845116806E1,-5.087833881E0,-1.716695070E0
2.561714983E0,2.748388100E1,-4.867560863E0,-1.664021015E0
2.563716816E0,2.705291176E1,-4.750241280E0,-1.632895470E0
2.565718149E0,2.623167419E1,-4.520390987E0,-1.529941559E0
2.567719482E0,2.548945045E1,-4.285751820E0,-1.424593568E0
2.569720815E0,2.515904045E1,-4.163643837E0,-1.388679385E0
2.571722415E0,2.450061417E1,-3.950553417E0,-1.319245458E0
2.573723748E0,2.388289070E1,-3.727885962E0,-1.252205729E0
2.575725081E0,2.360036659E1,-3.641691923E0,-1.240234375E0
2.577726381E0,2.301137543E1,-3.481275558E0,-1.180377483E0
2.579727781E0,2.250378799E1,-3.332830429E0,-1.173194647E0
2.581729114E0,2.223802376E1,-3.225088120E0,-1.204320192E0
2.583730380E0,2.167297554E1,-3.033546209E0,-1.268965602E0
2.585731746E0,2.103130913E1,-2.849187136E0,-1.300091267E0
2.587733046E0,2.070808220E1,-2.746233225E0,-1.328822494E0
2.589734379E0,2.011669731E1,-2.554691315E0,-1.388679385E0
2.591735779E0,1.977910423E1,-2.456526041E0,-1.407833576E0
2.593737112E0,1.913025665E1,-2.288926601E0,-1.383890867E0
2.595738478E0,1.849816704E1,-2.106961727E0,-1.364736676E0
2.597739544E0,1.817254639E1,-2.011190891E0,-1.359948039E0
2.599740877E0,1.758115959E1,-1.807677507E0,-1.273754239E0
2.601742210E0,1.702089882E1,-1.587404251E0,-1.230657220E0
2.603743543E0,1.668330765E1,-1.470084786E0,-1.192348838E0
2.605744876E0,1.605361176E1,-1.256994247E0,-1.137280583E0
2.607746242E0,1.536884975E1,-1.067846537E0,-1.098972082E0
2.609747608E0,1.508153725E1,-1.003201127E0,-1.084606528E0
2.611748974E0,1.445423698E1,-9.122186899E-1,-1.060663700E0
2.613750607E0,1.419565487E1,-8.739103079E-1,-1.082212210E0
2.615752140E0,1.364736652E1,-8.116591573E-1,-1.103760719E0
2.617753373E0,1.295063210E1,-7.805336118E-1,-1.175588965E0
2.619754706E0,1.265374279E1,-7.733507752E-1,-1.194743156E0
2.621756006E0,1.193546009E1,-7.613793612E-1,-1.201925993E0
2.623756839E0,1.120281219E1,-7.637736797E-1,-1.163617611E0
2.625758172E0,1.086521912E1,-7.925049663E-1,-1.127703428E0
2.627759538E0,1.019961071E1,-8.475732803E-1,-1.067846537E0
2.629760838E0,9.565128326E0,-8.882759809E-1,-1.029538155E0
2.631762204E0,9.239506721E0,-8.930644989E-1,-1.048692346E0
2.633763537E0,8.573898315E0,-8.260248303E-1,-1.103760719E0
2.635765003E0,8.221940041E0,-7.829278708E-1,-1.137280583E0
2.637766369E0,7.515628815E0,-7.087053657E-1,-1.156434774E0
2.639767669E0,6.771008968E0,-5.937801600E-1,-1.180377483E0
2.641769002E0,6.419050694E0,-5.458946824E-1,-1.201925993E0
2.643770402E0,5.741470814E0,-4.788549542E-1,-1.273754239E0
2.645771702E0,5.104593754E0,-4.405465722E-1,-1.338399649E0
2.647773302E0,4.805309772E0,-3.998439014E-1,-1.367130876E0
2.649774635E0,4.058295727E0,-3.160442710E-1,-1.438959122E0
2.651780635E0,3.328042030E0,-2.394274771E-1,-1.501210332E0
2.653781968E0,2.964112282E0,-1.987248063E-1,-1.498816013E0
2.655783334E0,2.255406857E0,-1.125309169E-1,-1.498816013E0
2.657784967E0,1.917814136E0,1.197137404E-2,-1.505998850E0
2.659786300E0,1.216291547E0,4.549122229E-2,-1.422199249E0
2.661787400E0,5.554717779E-1,1.316851079E-1,-1.276148438E0
2.663788466E0,2.202732861E-1,1.723877788E-1,-1.192348838E0
2.665789799E0,-4.213923812E-1,2.753416002E-1,-1.007989645E0
2.667791165E0,-1.041509509E0,3.375927508E-1,-7.541965842E-1
2.669792498E0,-1.326428294E0,3.471698463E-1,-4.812492430E-1
2.671800131E0,-1.898659945E0,4.788549542E-1,-4.046324492E-1
2.673801464E0,-2.446948767E0,6.057515144E-1,-5.339232683E-1
2.675802797E0,-2.717501879E0,6.225114465E-1,-4.956148863E-1
2.677804130E0,-3.237059593E0,6.416656375E-1,-2.633702159E-1
2.679805496E0,-3.711125851E0,5.985686779E-1,6.225114316E-2
2.681806862E0,-3.931399345E0,5.961744189E-1,2.298503816E-1
2.683808195E0,-4.336031914E0,5.698373914E-1,5.051919818E-1
2.685809561E0,-4.520390987E0,5.458946824E-1,6.225114465E-1
2.687810861E0,-4.889109135E0,5.698373914E-1,7.685621977E-1
2.689812227E0,-5.332049847E0,6.440598965E-1,8.140534163E-1
2.691813560E0,-5.566689014E0,6.823683381E-1,8.212362528E-1
2.693814926E0,-6.043149471E0,7.015225291E-1,9.648927450E-1
2.695815859E0,-6.438204765E0,7.685621977E-1,8.475732803E-1
2.697817225E0,-6.672843933E0,8.116591573E-1,6.823683381E-1
2.699819191E0,-7.115784645E0,8.403904438E-1,5.099805593E-1
2.701820657E0,-7.510839939E0,8.715160489E-1,5.147690773E-1
2.703822490E0,-7.673650742E0,8.691217303E-1,5.387118459E-1
2.705823856E0,-7.992089272E0,8.643332124E-1,5.889915824E-1
2.707824956E0,-8.130957603E0,8.427847624E-1,6.320885420E-1
2.709826322E0,-8.447001457E0,8.379961848E-1,7.110996246E-1
2.713824354E0,-8.719948769E0,8.595446348E-1,7.302538157E-1
2.715825420E0,-8.827691078E0,8.308133483E-1,7.541965842E-1
2.717826753E0,-8.856422424E0,8.116591573E-1,7.829278708E-1
2.719828086E0,-8.839662552E0,8.212362528E-1,7.925049663E-1
2.721829652E0,-8.782199860E0,7.972934842E-1,8.212362528E-1
2.723831285E0,-8.547560692E0,7.781392932E-1,8.140534163E-1
2.725832618E0,-8.413481712E0,7.685621977E-1,7.996878028E-1
2.727833918E0,-8.049551964E0,7.326480746E-1,7.230709791E-1
2.729835218E0,-7.616188049E0,7.015225291E-1,6.680026650E-1
2.731836451E0,-7.379155159E0,6.967339516E-1,5.411061049E-1
2.733837784E0,-6.931425571E0,6.584255695E-1,3.639297783E-1
2.735838850E0,-6.684815407E0,6.536370516E-1,2.657645047E-1
2.737840616E0,-6.205960274E0,5.985686779E-1,7.901106775E-2
2.739842216E0,-5.722316742E0,5.363175869E-1,-6.703969836E-2
2.741843549E0,-5.265010357E0,4.501236677E-1,-1.197137386E-1
2.743844882E0,-5.025582790E0,3.998439014E-1,-1.723877788E-1
2.745850015E0,-4.606584549E0,2.873129845E-1,-1.795706153E-1
2.747851681E0,-4.383917332E0,2.202732861E-1,-2.059076279E-1
2.749853047E0,-3.938581944E0,9.098244458E-2,-3.256213665E-1
2.751854380E0,-3.500429869E0,4.788549617E-3,-4.836435020E-1
2.753858480E0,-3.299310684E0,-7.182824612E-2,-5.315290093E-1
2.755860080E0,-2.909043789E0,-1.891477108E-1,-6.823683381E-1
2.757861413E0,-2.722290516E0,-2.561874092E-1,-7.446194887E-1
2.759862146E0,-2.334417820E0,-3.711125851E-1,-7.925049663E-1
2.761863412E0,-1.968093872E0,-4.788549542E-1,-8.523618579E-1
2.763864278E0,-1.778946161E0,-5.243461728E-1,-8.786988258E-1
2.765865611E0,-1.424593568E0,-6.296942830E-1,-9.337671995E-1
2.767866977E0,-1.125309110E0,-7.110996246E-1,-9.505270720E-1
2.769868277E0,-9.888355136E-1,-7.494080067E-1,-9.601042271E-1
2.771870343E0,-7.158881426E-1,-7.996878028E-1,-9.768640995E-1
2.773871676E0,-4.142095447E-1,-8.547561169E-1,-1.022355318E0
2.775873242E0,-2.585816681E-1,-8.786988258E-1,-1.046298146E0
2.777874608E0,9.577099234E-3,-9.026415944E-1,-1.077423692E0
2.779875941E0,1.747820675E-1,-9.194015265E-1,-1.089395046E0
2.781877307E0,2.442160249E-1,-9.241901040E-1,-1.113337755E0
2.783878673E0,3.830839694E-1,-9.457385540E-1,-1.106154919E0
2.785882773E0,5.363175869E-1,-9.553156495E-1,-1.103760719E0
2.787884139E0,6.344828010E-1,-9.744698405E-1,-1.113337755E0
2.789885539E0,8.332076073E-1,-9.888355136E-1,-1.118126392E0
2.793882071E0,1.137280583E0,-9.672870040E-1,-1.115732074E0
2.795883704E0,1.345582485E0,-8.930644989E-1,-1.096577883E0
2.797884670E0,1.458113313E0,-8.499675393E-1,-1.070240855E0
2.799885736E0,1.678386688E0,-7.781392932E-1,-1.041509509E0
2.801887102E0,1.905842781E0,-6.608198285E-1,-9.529213905E-1
2.803888468E0,2.023162127E0,-6.368771195E-1,-8.858816624E-1
2.805892468E0,2.236252785E0,-5.746259689E-1,-7.877163887E-1
2.807893534E0,2.312869549E0,-5.482889414E-1,-7.302538157E-1
2.809894600E0,2.480468750E0,-4.740664065E-1,-6.680026650E-1
2.811895933E0,2.628913641E0,-3.950553536E-1,-6.009629965E-1
2.815895899E0,2.784541607E0,-2.442160249E-1,-4.525179267E-1
2.817897232E0,2.777358770E0,-1.388679445E-1,-3.663240373E-1
2.819898565E0,2.794118643E0,-7.661679387E-2,-3.471698463E-1
2.821899865E0,2.786935806E0,2.154847234E-2,-2.873129845E-1
2.823901198E0,2.727078915E0,1.388679445E-1,-2.250618339E-1
2.825902931E0,2.712713242E0,2.466102988E-1,-1.891477108E-1
2.827904264E0,2.667222023E0,2.992843390E-1,-1.675992310E-1
2.829905630E0,2.619336605E0,3.998439014E-1,-1.484450400E-1
2.831906230E0,2.528354168E0,4.477293789E-1,-8.858817071E-2
2.833907563E0,2.387091875E0,5.004034638E-1,-5.985686928E-2
2.835908929E0,2.312869549E0,5.339232683E-1,-5.746259540E-2
2.837910262E0,2.138087511E0,5.865973234E-1,-3.830839694E-2
2.839911628E0,1.932179809E0,6.057515144E-1,-4.070267081E-2
2.841912994E0,1.826831698E0,5.985686779E-1,-4.788549617E-2
2.843914294E0,1.616135478E0,6.009629965E-1,-5.746259540E-2
2.847914226E0,1.307274103E0,5.865973234E-1,-1.388679445E-1
2.849915559E0,1.108549237E0,5.458946824E-1,-2.466102988E-1
2.851916892E0,8.930644989E-1,5.075862408E-1,-3.782954216E-1
2.853918258E0,8.020820618E-1,4.716721475E-1,-4.501236677E-1
2.855919558E0,5.770202279E-1,4.381522834E-1,-5.770202279E-1
2.857920858E0,4.788549542E-1,4.237866402E-1,-6.273000240E-1
2.859922224E0,2.585816681E-1,3.711125851E-1,-7.063110471E-1
2.861923557E0,5.985686928E-2,3.256213665E-1,-7.398309112E-1
2.863924890E0,-9.577099234E-3,2.681587934E-1,-7.374366522E-1
2.867921056E0,-3.663240373E-1,1.245022863E-1,-7.254652381E-1
2.869922622E0,-4.429408312E-1,1.029538140E-1,-6.967339516E-1
2.871923955E0,-5.842030644E-1,4.309694469E-2,-6.464542150E-1
2.873925255E0,-6.967339516E-1,0.000000000E0,-5.842030644E-1
2.875926555E0,-7.757450342E-1,-4.788549617E-2,-5.195576549E-1
2.877927888E0,-9.170072675E-1,-1.556278616E-1,-3.687183261E-1
2.879929221E0,-9.720755816E-1,-2.274561077E-1,-2.992843390E-1
2.881930554E0,-1.089395046E0,-2.992843390E-1,-2.011190802E-1
2.883931887E0,-1.187560320E0,-3.328042030E-1,-2.083019018E-1
2.885932820E0,-1.235445857E0,-3.328042030E-1,-2.633702159E-1
2.887934120E0,-1.259388566E0,-3.088614643E-1,-3.040728867E-1
2.889935453E0,-1.268965602E0,-2.322446555E-1,-3.782954216E-1
2.891936786E0,-1.280937076E0,-1.963305324E-1,-4.333637357E-1
2.893938119E0,-1.321639657E0,-1.292908341E-1,-5.123748183E-1
2.895939452E0,-1.355159521E0,-6.464541703E-2,-5.674431324E-1
2.897940752E0,-1.383890867E0,-1.675992459E-2,-5.770202279E-1
2.899942085E0,-1.446141958E0,3.591412306E-2,-5.626545548E-1
2.901943385E0,-1.505998850E0,6.703969836E-2,-5.363175869E-1
2.903944718E0,-1.532335877E0,8.858817071E-2,-4.453351200E-1
2.905946084E0,-1.604164124E0,1.388679445E-1,-3.399870098E-1
2.907949484E0,-1.644866824E0,1.508393139E-1,-2.897072434E-1
2.909950784E0,-1.719089270E0,1.723877788E-1,-1.532335877E-1
2.911952117E0,-1.781340480E0,1.963305324E-1,-3.351984918E-2
2.913953417E0,-1.800494671E0,2.011190802E-1,5.027977005E-2
2.915954750E0,-1.877111435E0,2.083019018E-1,1.747820675E-1
2.917956150E0,-1.929785490E0,2.106961906E-1,3.208328187E-1
2.919957483E0,-1.953728199E0,2.106961906E-1,3.759011328E-1
2.921958783E0,-2.018373728E0,2.346389294E-1,5.004034638E-1
2.923960149E0,-2.056682110E0,2.633702159E-1,5.794144869E-1
2.925965382E0,-2.071047783E0,2.729473412E-1,6.249057055E-1
2.927966748E0,-2.118933201E0,2.897072434E-1,6.680026650E-1
2.929968148E0,-2.140481710E0,3.112557232E-1,6.799740195E-1
2.931969481E0,-2.126116037E0,3.136500120E-1,6.943396926E-1
2.933970814E0,-2.114144564E0,3.232271075E-1,7.158881426E-1
2.935972180E0,-2.102173328E0,3.328042030E-1,7.134938836E-1
2.937973513E0,-2.087807655E0,3.830839694E-1,7.470137477E-1
2.939974846E0,-2.073441982E0,3.806896806E-1,7.901107073E-1
2.941976212E0,-2.056682110E0,3.735068738E-1,8.068706393E-1
2.943977545E0,-2.013585091E0,3.926610649E-1,8.739103079E-1
2.945978878E0,-1.989642382E0,3.998439014E-1,9.505270720E-1
2.947980278E0,-1.963305354E0,4.070267081E-1,9.840469360E-1
2.949981644E0,-1.944151163E0,4.261809289E-1,1.043903828E0
2.951982977E0,-1.913025618E0,4.573064744E-1,1.070240855E0
2.953984310E0,-1.836408734E0,4.884320498E-1,1.118126392E0
2.955985676E0,-1.728666425E0,5.075862408E-1,1.158828974E0
2.957987042E0,-1.659232497E0,5.171633363E-1,1.182771802E0
2.959988375E0,-1.541913033E0,5.291347504E-1,1.240234375E0
2.961989608E0,-1.393467903E0,5.339232683E-1,1.333611012E0
2.963990974E0,-1.312062621E0,5.315290093E-1,1.364736676E0
2.965992340E0,-1.134886265E0,5.004034638E-1,1.415016413E0
2.969992939E0,-8.308133483E-1,4.932205975E-1,1.505998850E0
2.971994305E0,-6.273000240E-1,4.860377908E-1,1.556278586E0
2.973995671E0,-4.453351200E-1,4.836435020E-1,1.632895470E0
2.975997771E0,-3.375927508E-1,4.716721475E-1,1.618529797E0
2.977999104E0,-1.556278616E-1,4.381522834E-1,1.573038578E0
2.980000404E0,-7.661679387E-2,4.333637357E-1,1.534730196E0
2.982001770E0,1.460507661E-1,3.591412306E-1,1.498816013E0
2.984003103E0,3.615354896E-1,3.136500120E-1,1.446141958E0
2.988001902E0,7.278595567E-1,2.633702159E-1,1.501210332E0
2.990007835E0,1.015172482E0,2.083019018E-1,1.539518714E0
2.992009201E0,1.192348838E0,1.699935049E-1,1.568249941E0
2.994010601E0,1.505998850E0,7.901106775E-2,1.659232497E0
2.996011967E0,1.800494671E0,3.830839694E-2,1.745426297E0
2.998013333E0,1.970488191E0,-2.394274808E-3,1.790917516E0
3.000014733E0,2.312869549E0,-8.140534163E-2,1.853168726E0
3.002016099E0,2.504411459E0,-1.268965602E-1,1.872322917E0
3.004017465E0,2.937775135E0,-1.771763414E-1,1.874717116E0
3.006018865E0,3.404658794E0,-2.298503816E-1,1.802888989E0
3.008020165E0,3.883513689E0,-2.466102988E-1,1.738243461E0
3.010021465E0,4.134912491E0,-2.513988614E-1,1.714300752E0
3.012022865E0,4.654470444E0,-2.059076279E-1,1.687963724E0
3.014024231E0,4.913052082E0,-1.819648892E-1,1.719089270E0
3.016025531E0,5.379935265E0,-8.379961550E-2,1.786128998E0
3.018026864E0,5.930618763E0,3.351984918E-2,1.989642382E0
3.020028197E0,6.205960274E0,8.858817071E-2,2.121327400E0
3.022029630E0,6.790163517E0,2.513988614E-1,2.444554567E0
3.024030996E0,7.393520832E0,4.285751879E-1,2.602576733E0
3.026032329E0,7.750267506E0,5.051919818E-1,2.904255390E0
3.028033695E0,8.552350044E0,7.182824612E-1,3.091008663E0
3.030035061E0,9.016839027E0,7.781392932E-1,3.136499882E0
3.032036394E0,1.006553173E1,9.840469360E-1,3.098191500E0
3.034037727E0,1.133210278E1,1.151646137E0,2.899466753E0
3.036038360E0,1.201207638E1,1.245022893E0,2.751021862E0
3.038039660E0,1.353962421E1,1.405439258E0,2.384697676E0
3.040041026E0,1.513899994E1,1.470084786E0,1.879505754E0
3.042042392E0,1.596023560E1,1.479661822E0,1.549095750E0
3.044043692E0,1.793072319E1,1.515576005E0,8.715160489E-1
3.046045025E0,2.070089912E1,1.565855742E0,2.561874092E-1
3.048046391E0,2.234576607E1,1.563461423E0,-7.182824612E-2
3.052044490E0,2.789090729E1,1.319245458E0,-1.395862222E0
3.054045823E0,3.168104362E1,1.019961119E0,-2.612153769E0
3.056047156E0,3.480317688E1,6.967339516E-1,-4.019987583E0
3.058048522E0,3.577525330E1,4.620950520E-1,-4.802915096E0
3.060049855E0,3.713280869E1,-2.992843390E-1,-6.601015568E0
3.062051188E0,3.839937973E1,-1.247417212E0,-8.174054146E0
3.064052554E0,3.912723923E1,-1.752609134E0,-8.418270111E0
3.066053887E0,4.112885284E1,-2.772570133E0,-8.150111198E0
3.068055253E0,4.393494415E1,-3.744645834E0,-6.632141113E0
3.070056653E0,4.554150009E1,-4.230683804E0,-5.631334305E0
3.072057753E0,4.902038193E1,-5.061496735E0,-3.320859194E0
3.074059086E0,5.069158554E1,-5.643305779E0,-2.279349566E0
3.076060486E0,5.352640915E1,-5.854001999E0,-6.823683381E-1
3.078061819E0,5.447693634E1,-6.124555111E0,1.939362586E-1
3.080063185E0,5.408906174E1,-6.124555111E0,3.304099143E-1
3.082064585E0,5.192703247E1,-5.691191196E0,-1.699935049E-1
3.084065918E0,4.821351242E1,-4.848406315E0,-7.829278708E-1
3.086067251E0,4.632203293E1,-4.336031914E0,-1.015172482E0
3.088068617E0,4.332201004E1,-3.332830429E0,-1.259388566E0
3.090071217E0,4.109772873E1,-2.506805658E0,-1.388679385E0
3.092072550E0,4.012086487E1,-2.190761566E0,-1.450930476E0
3.094073916E0,3.814079666E1,-1.678386688E0,-1.561067224E0
3.096075249E0,3.644565201E1,-1.400650740E0,-1.685569525E0
3.098076615E0,3.564835739E1,-1.316851139E0,-1.699935079E0
3.100077981E0,3.433390045E1,-1.223474383E0,-1.824437380E0
3.102079281E0,3.368505096E1,-1.156434774E0,-1.939362645E0
3.104080647E0,3.249749374E1,-9.648927450E-1,-2.185972929E0
3.106082013E0,3.141767311E1,-6.680026650E-1,-2.370332003E0
3.108083346E0,3.094600105E1,-4.788549542E-1,-2.434977531E0
3.110084679E0,3.023490143E1,-6.703969836E-2,-2.564268351E0
3.112086012E0,2.978238487E1,3.543526828E-1,-2.748627424E0
3.114087345E0,2.961478424E1,5.746259689E-1,-2.839609861E0
3.116088678E0,2.962436295E1,9.361614585E-1,-2.916226625E0
3.118089978E0,2.994998360E1,1.139674783E0,-2.916226625E0
3.120091311E0,3.027081680E1,1.139674783E0,-2.803695917E0
3.122092677E0,3.130993080E1,9.577099085E-1,-2.549902678E0
3.124093977E0,3.198990631E1,8.116591573E-1,-2.437371731E0
3.126095277E0,3.415433121E1,2.226675600E-1,-2.128510237E0
3.128096610E0,3.493486404E1,-7.901106775E-2,-2.006402254E0
3.130097910E0,3.571060944E1,-4.477293789E-1,-1.903448462E0
3.132099443E0,3.702506638E1,-1.158828974E0,-1.766974807E0
3.134100809E0,3.823417282E1,-1.898659945E0,-1.673598051E0
3.136102142E0,3.872739410E1,-2.300898075E0,-1.601769805E0
3.138103242E0,3.954623795E1,-3.038334846E0,-1.616135478E0
3.140105208E0,3.976172256E1,-3.694365978E0,-1.726272106E0
3.142106541E0,3.973299026E1,-3.984073162E0,-1.798100352E0
3.144107574E0,3.969707489E1,-4.498842239E0,-1.948939681E0
3.146109574E0,3.973059464E1,-4.872349262E0,-1.987248063E0
3.148110874E0,3.967792130E1,-5.030371189E0,-1.968093872E0
3.150110940E0,3.951511002E1,-5.205153465E0,-1.960911036E0
3.152112306E0,3.928525925E1,-5.236279011E0,-1.908236980E0
3.154113639E0,3.867950821E1,-5.236279011E0,-1.735849261E0
3.156114972E0,3.802108383E1,-5.200365067E0,-1.549095750E0
3.158116338E0,3.763800049E1,-5.133325100E0,-1.443747759E0
3.160117671E0,3.665155792E1,-4.874743462E0,-1.218685865E0
3.162121471E0,3.541850662E1,-4.553910732E0,-9.648927450E-1
3.164122837E0,3.474092865E1,-4.355185986E0,-8.140534163E-1
3.166123903E0,3.342168045E1,-3.991255999E0,-5.339232683E-1
3.168125203E0,3.219342041E1,-3.694365978E0,-2.944957912E-1
3.170126569E0,3.159963799E1,-3.562680960E0,-1.819648892E-1
3.172127869E0,3.045278168E1,-3.292127848E0,-4.070267081E-2
3.174129202E0,2.992843437E1,-3.150865555E0,-1.675992459E-2
3.176130568E0,2.890368462E1,-2.851581335E0,-3.351984918E-2
3.178131934E0,2.789569664E1,-2.585816860E0,-1.532335877E-1
3.180133267E0,2.741205215E1,-2.451737404E0,-2.442160249E-1
3.182134600E0,2.643518829E1,-2.229069948E0,-4.549122155E-1
3.184135966E0,2.551339149E1,-1.992036581E0,-6.536370516E-1
3.186137332E0,2.462511635E1,-1.860351562E0,-8.379961848E-1
3.188140565E0,2.424921608E1,-1.807677507E0,-9.098244309E-1
3.190141931E0,2.335854530E1,-1.668809533E0,-1.039115310E0
3.192143331E0,2.289645004E1,-1.632895470E0,-1.072635174E0
3.194144664E0,2.203929901E1,-1.563461423E0,-1.110943556E0
3.196145697E0,2.159635925E1,-1.534730196E0,-1.139674783E0
3.198147330E0,2.076315117E1,-1.508393168E0,-1.209108829E0
3.200148063E0,1.997064590E1,-1.477267504E0,-1.290514112E0
3.202149396E0,1.956361961E1,-1.434170604E0,-1.331216812E0
3.204151062E0,1.875674820E1,-1.309668303E0,-1.410227895E0
3.206151762E0,1.796424294E1,-1.166011810E0,-1.458113313E0
3.208153095E0,1.759552574E1,-1.103760719E0,-1.482056141E0
3.210154461E0,1.691315651E1,-9.433442950E-1,-1.525153041E0
3.212155761E0,1.625712585E1,-7.733507752E-1,-1.570644259E0
3.214157061E0,1.593868732E1,-7.158881426E-1,-1.577827096E0
3.216158394E0,1.534969616E1,-5.842030644E-1,-1.589798450E0
3.218159727E0,1.476549244E1,-5.147690773E-1,-1.520364523E0
3.220161060E0,1.449254513E1,-4.764606953E-1,-1.496421814E0
3.224161293E0,1.367130947E1,-4.118152559E-1,-1.400650740E0
3.230643335E0,1.311823177E1,-3.998439014E-1,-1.369525194E0
3.232651501E0,1.256515408E1,-3.974496126E-1,-1.312062621E0
3.234652834E0,1.231136131E1,-3.998439014E-1,-1.268965602E0
3.236654200E0,1.172236919E1,-3.974496126E-1,-1.194743156E0
3.238656100E0,1.110464668E1,-3.830839694E-1,-1.096577883E0
3.240657433E0,1.079339123E1,-3.902668059E-1,-1.046298146E0
3.242658766E0,1.013735962E1,-4.237866402E-1,-9.265843630E-1
3.244660099E0,9.471751213E0,-4.501236677E-1,-8.978530765E-1
3.246661399E0,9.126976013E0,-4.692778587E-1,-9.457385540E-1
3.248662732E0,8.451789856E0,-4.597007632E-1,-1.091789365E0
3.250664098E0,7.755055904E0,-4.453351200E-1,-1.211503029E0
3.254664864E0,6.723123550E0,-4.070267081E-1,-1.391073704E0
3.256666164E0,6.359193802E0,-3.854782581E-1,-1.450930476E0
3.258667464E0,5.578660488E0,-3.471698463E-1,-1.517970204E0
3.260669097E0,4.886714935E0,-3.232271075E-1,-1.616135478E0
3.262670430E0,4.553910732E0,-3.088614643E-1,-1.685569525E0
3.264671996E0,3.952947617E0,-2.753416002E-1,-1.788523316E0
3.266673329E0,3.354378939E0,-2.370332032E-1,-1.874717116E0
3.268674662E0,3.083826065E0,-2.202732861E-1,-1.857957244E0
3.270675995E0,2.681587696E0,-2.202732861E-1,-1.822043180E0
3.272677395E0,2.169213057E0,-1.173194647E-1,-1.970488191E0
3.274678695E0,1.874717116E0,-6.943397224E-2,-2.097384691E0
3.276680828E0,1.259388566E0,4.309694469E-2,-2.001613855E0
3.278682228E0,9.888355136E-1,8.140534163E-2,-1.922602654E0
3.280683594E0,1.094183564E0,1.412622184E-1,-2.020767927E0
3.282684660E0,-7.422251999E-2,3.399870098E-1,-1.948939681E0
3.284686026E0,-5.698373914E-1,3.280156553E-1,-1.587404251E0
3.286687392E0,-1.415016413E0,2.897072434E-1,-1.314456820E0
3.288688725E0,-2.092596292E0,2.729473412E-1,-1.266571403E0
3.290690091E0,-2.384697676E0,2.609759569E-1,-1.189954638E0
3.294685690E0,-3.481275558E0,2.561874092E-1,-6.488484740E-1
3.296687056E0,-3.759011507E0,2.753416002E-1,-4.213923812E-1
3.298687856E0,-4.333637238E0,3.830839694E-1,-3.711125851E-1
3.300689156E0,-4.613767624E0,4.381522834E-1,-4.213923812E-1
3.302690522E0,-5.106987953E0,5.267404318E-1,-3.591412306E-1
3.304691888E0,-5.573871613E0,5.961744189E-1,-1.747820675E-1
3.306693254E0,-5.822876453E0,6.105400920E-1,-3.830839694E-2
3.308694587E0,-6.272999763E0,6.296942830E-1,2.585816681E-1
3.310695887E0,-6.660872459E0,6.440598965E-1,5.099805593E-1
3.312697253E0,-6.847625732E0,6.225114465E-1,6.320885420E-1
3.314698619E0,-7.235498428E0,6.105400920E-1,7.494080067E-1
3.316699985E0,-7.623371124E0,6.488484740E-1,8.403904438E-1
3.318701351E0,-7.798152924E0,6.847625971E-1,9.002473354E-1
3.320702717E0,-8.121379852E0,7.230709791E-1,9.577099085E-1
3.322704050E0,-8.413481712E0,7.494080067E-1,9.768640995E-1
3.324705150E0,-8.547560692E0,7.422251701E-1,8.427847624E-1
3.326706483E0,-8.827691078E0,7.805336118E-1,6.536370516E-1
3.328707783E0,-9.002472878E0,7.733507752E-1,5.650488734E-1
3.330709116E0,-9.304151535E0,8.116591573E-1,6.320885420E-1
3.332710682E0,-9.510059357E0,8.715160489E-1,7.829278708E-1
3.334711782E0,-9.538790703E0,8.906702399E-1,8.020820618E-1
3.336712048E0,-9.622590065E0,9.696813226E-1,7.589851022E-1
3.338713348E0,-9.627379417E0,1.010383964E0,7.589851022E-1
3.340714648E0,-9.593858719E0,1.022355318E0,8.188419938E-1
3.342716281E0,-9.428654671E0,1.036720991E0,1.012778282E0
3.344717581E0,-9.033598900E0,9.864411950E-1,1.079817891E0
3.346718914E0,-8.772623062E0,9.840469360E-1,1.053480864E0
3.348720280E0,-8.178842545E0,9.361614585E-1,8.906702399E-1
3.350721580E0,-7.850827217E0,8.978530765E-1,7.996878028E-1
3.352722913E0,-7.163670063E0,7.948992252E-1,5.626545548E-1
3.354724579E0,-6.481301785E0,7.015225291E-1,2.777358890E-1
3.356725912E0,-6.153286457E0,6.464542150E-1,1.508393139E-1
3.358727245E0,-5.537957668E0,5.075862408E-1,-5.027977005E-2
3.360728611E0,-4.915446281E0,3.519583941E-1,-1.843591630E-1
3.362729911E0,-4.632921696E0,2.633702159E-1,-2.442160249E-1
3.364731244E0,-4.043930054E0,5.746259540E-2,-3.950553536E-1
3.366732610E0,-3.514795303E0,-1.268965602E-1,-5.291347504E-1
3.368733976E0,-3.256213665E0,-2.274561077E-1,-5.937801600E-1
3.370735342E0,-2.782147408E0,-4.046324492E-1,-7.039167881E-1
3.372736675E0,-2.545114040E0,-5.865973234E-1,-7.494080067E-1
3.374738008E0,-2.099778891E0,-6.560313106E-1,-8.164477348E-1
3.376739341E0,-1.704723716E0,-7.781392932E-1,-8.691217303E-1
3.378740707E0,-1.508393168E0,-8.332076073E-1,-9.002473354E-1
3.380742040E0,-1.108549237E0,-9.433442950E-1,-9.601042271E-1
3.382743373E0,-7.446194887E-1,-9.960182905E-1,-9.816526771E-1
3.384744739E0,-5.722316504E-1,-1.048692346E0,-9.912297726E-1
3.386746105E0,-2.442160249E-1,-1.098972082E0,-9.553156495E-1
3.388747438E0,4.788549617E-2,-1.103760719E0,-8.834874034E-1
3.390748804E0,1.795706153E-1,-1.113337755E0,-8.403904438E-1
3.392749904E0,4.429408312E-1,-1.144463301E0,-7.494080067E-1
3.394751504E0,6.632141471E-1,-1.137280583E0,-6.512427330E-1
3.396753170E0,7.901107073E-1,-1.139674783E0,-6.033572555E-1
3.398754536E0,9.720755816E-1,-1.122914910E0,-4.980091453E-1
3.400755902E0,1.055875182E0,-1.108549237E0,-4.285751879E-1
3.402757235E0,1.240234375E0,-1.101366401E0,-3.830839694E-1
3.404758601E0,1.410227895E0,-1.082212210E0,-3.950553536E-1
3.406759934E0,1.474873304E0,-1.065452337E0,-4.189980924E-1
3.408761267E0,1.596981287E0,-1.022355318E0,-4.309694767E-1
3.410762600E0,1.697540879E0,-9.840469360E-1,-4.668835998E-1
3.412764000E0,1.762186289E0,-9.577099085E-1,-4.644893110E-1
3.414765333E0,1.841197371E0,-8.786988258E-1,-4.764606953E-1
3.416766633E0,1.944151163E0,-7.805336118E-1,-4.884320498E-1
3.418767966E0,1.994430900E0,-7.494080067E-1,-4.525179267E-1
3.420769332E0,2.104567528E0,-6.584255695E-1,-4.213923812E-1
3.422770698E0,2.166818619E0,-5.842030644E-1,-4.070267081E-1
3.424772064E0,2.267378330E0,-4.597007632E-1,-3.735068738E-1
3.426773664E0,2.358360767E0,-3.495641351E-1,-3.208328187E-1
3.428774997E0,2.403851986E0,-2.849186957E-1,-3.040728867E-1
3.430776363E0,2.478074312E0,-1.795706153E-1,-2.442160249E-1
3.432777729E0,2.561874151E0,-6.225114316E-2,-1.747820675E-1
3.434779029E0,2.600182533E0,-7.182824425E-3,-1.364736706E-1
3.436780362E0,2.633702278E0,5.985686928E-2,-5.985686928E-2
3.438781695E0,2.655250788E0,1.484450400E-1,-7.182824425E-3
3.440782995E0,2.645673752E0,1.795706153E-1,2.154847234E-2
3.442784361E0,2.585816860E0,2.322446555E-1,6.225114316E-2
3.444785694E0,2.521171331E0,2.705530524E-1,5.985686928E-2
3.446787027E0,2.456526041E0,3.040728867E-1,6.464541703E-2
3.448788427E0,2.317657948E0,3.256213665E-1,2.873129770E-2
3.450789727E0,2.253012657E0,3.256213665E-1,1.197137404E-2
3.452791060E0,2.068653345E0,3.615354896E-1,-4.549122229E-2
3.454792393E0,1.884294271E0,3.639297783E-1,-7.901106775E-2
3.456793726E0,1.798100352E0,3.902668059E-1,-1.101366431E-1
3.458795059E0,1.647261024E0,4.189980924E-1,-2.059076279E-1
3.460796392E0,1.460507631E0,4.549122155E-1,-2.753416002E-1
3.462797725E0,1.357553840E0,4.453351200E-1,-3.064671755E-1
3.464799058E0,1.158828974E0,4.549122155E-1,-3.663240373E-1
3.466800391E0,9.912297726E-1,4.788549542E-1,-4.094209969E-1
3.468801724E0,8.954587579E-1,4.932205975E-1,-4.237866402E-1
3.470803090E0,7.039167881E-1,5.004034638E-1,-4.620950520E-1
3.472804390E0,5.985686779E-1,5.171633363E-1,-4.956148863E-1
3.474805723E0,4.166038036E-1,5.267404318E-1,-5.195576549E-1
3.476807089E0,2.298503816E-1,5.171633363E-1,-5.267404318E-1
3.478808455E0,1.436564922E-1,5.315290093E-1,-5.171633363E-1
3.480809788E0,-1.197137404E-2,5.554717779E-1,-4.740664065E-1
3.482811154E0,-2.130904645E-1,5.195576549E-1,-4.477293789E-1
3.484812454E0,-3.040728867E-1,4.956148863E-1,-4.597007632E-1
3.486813487E0,-4.716721475E-1,4.597007632E-1,-4.381522834E-1
3.488817587E0,-6.847625971E-1,4.261809289E-1,-4.261809289E-1
3.490818920E0,-8.715160489E-1,3.471698463E-1,-4.166038036E-1
3.492820253E0,-9.601042271E-1,3.112557232E-1,-3.974496126E-1
3.494821653E0,-1.048692346E0,2.154847383E-1,-3.806896806E-1
3.496823019E0,-1.197137356E0,1.675992310E-1,-3.687183261E-1
3.498824352E0,-1.340793848E0,1.221080124E-1,-3.711125851E-1
3.500825752E0,-1.429382086E0,9.337671846E-2,-3.830839694E-1
3.502827052E0,-1.561067224E0,5.506832153E-2,-4.118152559E-1
3.504828385E0,-1.719089270E0,3.351984918E-2,-4.261809289E-1
3.506829751E0,-1.793311834E0,0.000000000E0,-4.405465722E-1
3.508831084E0,-1.903448462E0,-5.985686928E-2,-4.429408312E-1
3.510832450E0,-2.001613855E0,-8.858817071E-2,-4.477293789E-1
3.512833783E0,-2.056682110E0,-1.029538140E-1,-4.357580245E-1
3.514835149E0,-2.130904675E0,-1.005595401E-1,-4.213923812E-1
3.516836182E0,-2.193155766E0,-8.858817071E-2,-4.189980924E-1
3.518837548E0,-2.207521439E0,-9.577099234E-2,-4.118152559E-1
3.520838881E0,-2.231464148E0,-5.985686928E-2,-4.285751879E-1
3.522840214E0,-2.236252785E0,-5.267404765E-2,-4.237866402E-1
3.524841547E0,-2.224281311E0,-3.830839694E-2,-4.501236677E-1
3.526842880E0,-2.207521439E0,-1.436564885E-2,-5.004034638E-1
3.528844180E0,-2.181184292E0,0.000000000E0,-5.291347504E-1
3.530845546E0,-2.116539001E0,1.436564885E-2,-5.363175869E-1
3.532846879E0,-2.039922237E0,4.549122229E-2,-4.884320498E-1
3.534848212E0,-1.977671027E0,4.788549617E-2,-4.668835998E-1
3.536849578E0,-1.889082789E0,6.464541703E-2,-3.806896806E-1
3.538850911E0,-1.733454943E0,6.943397224E-2,-3.328042030E-1
3.540852244E0,-1.654443860E0,6.225114316E-2,-2.968900800E-1
3.542853544E0,-1.446141958E0,7.422251999E-2,-2.585816681E-1
3.544854910E0,-1.343188167E0,8.858817071E-2,-2.322446555E-1
3.546856276E0,-1.103760719E0,9.816526622E-2,-2.059076279E-1
3.550856209E0,-6.177229285E-1,6.943397224E-2,-5.506832153E-2
3.552857542E0,-4.836435020E-1,5.746259540E-2,-9.577099234E-3
3.554858842E0,-2.035133541E-1,2.154847234E-2,8.140534163E-2
3.556860142E0,-3.830839694E-2,1.915419847E-2,1.197137386E-1
3.558861508E0,2.609759569E-1,0.000000000E0,1.963305324E-1
3.560862808E0,5.027977228E-1,-2.633702382E-2,2.825244367E-1
3.562864141E0,5.985686779E-1,-2.873129770E-2,3.040728867E-1
3.564865474E0,8.020820618E-1,-5.267404765E-2,3.543526828E-1
3.566866807E0,9.313728809E-1,-8.858817071E-2,3.759011328E-1
3.568868107E0,9.792584181E-1,-7.661679387E-2,3.615354896E-1
3.570869473E0,9.864411950E-1,-1.101366431E-1,3.711125851E-1
3.572870839E0,9.840469360E-1,-1.268965602E-1,3.663240373E-1
3.574872172E0,1.000806928E0,-1.580221355E-1,3.663240373E-1
3.576873838E0,1.075029373E0,-2.106961906E-1,3.782954216E-1
3.578875138E0,1.137280583E0,-2.298503816E-1,4.237866402E-1
3.580876471E0,1.206714511E0,-2.705530524E-1,5.411061049E-1
3.582879871E0,1.233051538E0,-3.064671755E-1,6.823683381E-1
3.584881204E0,1.242628574E0,-3.256213665E-1,7.182824612E-1
3.586882570E0,1.314456820E0,-3.782954216E-1,6.656084061E-1
3.588883936E0,1.376708031E0,-4.477293789E-1,4.285751879E-1
3.590885269E0,1.438959122E0,-4.692778587E-1,2.729473412E-1
3.592886569E0,1.496421814E0,-4.908263385E-1,-8.858817071E-2
3.594887935E0,1.522758722E0,-5.123748183E-1,-2.681587934E-1
3.596889268E0,1.642472506E0,-5.506832004E-1,-5.506832004E-1
3.598890901E0,1.824437380E0,-5.458946824E-1,-5.842030644E-1
3.600892267E0,1.932179809E0,-5.291347504E-1,-4.908263385E-1
3.602893600E0,2.212309837E0,-5.051919818E-1,-1.340793967E-1
3.604894933E0,2.530748367E0,-5.387118459E-1,3.663240373E-1
3.606896266E0,2.707924843E0,-5.674431324E-1,6.177229285E-1
3.608897932E0,3.052700281E0,-6.536370516E-1,1.084606528E0
3.610899265E0,3.445361376E0,-7.613793612E-1,1.424593568E0
3.612900898E0,3.629720688E0,-8.260248303E-1,1.546701550E0
3.614902264E0,4.072661400E0,-9.170072675E-1,1.659232497E0
3.616903630E0,4.352791786E0,-1.039115310E0,1.625712633E0
3.618904930E0,4.838829517E0,-1.077423692E0,1.494027495E0
3.620906296E0,5.286558628E0,-1.199531674E0,1.216291547E0
3.622907662E0,5.535563469E0,-1.259388566E0,1.046298146E0
3.624909295E0,6.028783798E0,-1.417410731E0,7.015225291E-1
3.626910595E0,6.567495823E0,-1.573038578E0,3.543526828E-1
3.628911995E0,6.854808807E0,-1.673598051E0,2.035133541E-1
3.630913328E0,7.403097630E0,-1.850774407E0,1.915419847E-2
3.632914628E0,7.980117798E0,-2.030344963E0,-7.182824425E-3
3.634915961E0,8.312922478E0,-2.147664547E0,3.591412306E-2
3.636917261E0,8.956981659E0,-2.312869549E0,2.250618339E-1
3.638918627E0,9.677659035E0,-2.485257149E0,4.860377908E-1
3.640919993E0,1.005116558E1,-2.571451187E0,6.081457734E-1
3.644920625E0,1.135843945E1,-2.758204460E0,8.020820618E-1
3.646921958E0,1.239276600E1,-2.798907280E0,7.541965842E-1
3.648924658E0,1.364976025E1,-2.794118643E0,5.195576549E-1
3.650925991E0,1.437283134E1,-2.758204460E0,3.328042030E-1
3.652927391E0,1.594108200E1,-2.727078915E0,-1.604164094E-1
3.654928724E0,1.783734703E1,-2.691164970E0,-7.853221297E-1
3.656930057E0,1.885970306E1,-2.679193497E0,-1.144463301E0
3.658931090E0,2.107440758E1,-2.564268351E0,-2.004008055E0
3.660932423E0,2.334178543E1,-2.557085514E0,-3.083826065E0
3.662933789E0,2.435695839E1,-2.485257149E0,-3.658451796E0
3.664935155E0,2.642082214E1,-2.267378330E0,-4.953754425E0
3.666936521E0,2.790766716E1,-2.269772530E0,-5.604997158E0
3.668937487E0,3.096276093E1,-2.274561167E0,-6.811711788E0
3.670938820E0,3.350308609E1,-2.243435383E0,-8.166871071E0
3.672939886E0,3.464994431E1,-2.226675510E0,-8.854028702E0
3.674941219E0,3.657973099E1,-2.176395893E0,-1.015651417E1
3.676942552E0,3.804742050E1,-2.154847383E0,-1.092268181E1
3.678943918E0,3.863880539E1,-2.106961727E0,-1.093704700E1
3.680945251E0,3.976172256E1,-2.037527800E0,-1.046058655E1
3.682946617E0,4.067154694E1,-2.188367128E0,-9.431048393E0
3.684947683E0,4.098998642E1,-2.339206457E0,-8.784594536E0
3.686949049E0,4.131800079E1,-2.820455790E0,-7.410280704E0
3.688950382E0,4.115279388E1,-3.543526649E0,-6.749460697E0
3.690951682E0,4.086548233E1,-3.931399345E0,-5.571477413E0
3.692953082E0,3.996523666E1,-4.522785187E0,-4.687990189E0
3.694954448E0,3.935469437E1,-4.664047241E0,-4.271386147E0
3.696955781E0,3.801868820E1,-4.561093330E0,-3.486064196E0
3.698957114E0,3.686465073E1,-4.194769382E0,-2.856369734E0
3.700958447E0,3.632833099E1,-3.912245035E0,-2.604970932E0
3.702959813E0,3.533231354E1,-3.237059593E0,-2.332023621E0
3.704961179E0,3.444403839E1,-2.566662550E0,-2.332023621E0
3.706962545E0,3.402025223E1,-2.260195494E0,-2.389486313E0
3.708962545E0,3.310803223E1,-1.697540879E0,-2.686376333E0
3.710963911E0,3.216708374E1,-1.350371003E0,-3.081431627E0
3.712965244E0,3.170498657E1,-1.237840056E0,-3.311282158E0
3.714966577E0,3.080473900E1,-1.168406129E0,-3.756617069E0
3.716967943E0,3.041447258E1,-1.199531674E0,-3.950553417E0
3.718969276E0,2.978477859E1,-1.395862222E0,-4.247443676E0
3.720970609E0,2.940169525E1,-1.690358043E0,-4.376734257E0
3.722971975E0,2.930831718E1,-1.850774407E0,-4.391099930E0
3.724973275E0,2.938732910E1,-2.212309837E0,-4.381523132E0
3.726974575E0,2.987097168E1,-2.549902678E0,-4.340820312E0
3.728975941E0,3.025884438E1,-2.688770533E0,-4.292934895E0
3.730977941E0,3.124289131E1,-2.889889717E0,-4.168432236E0
3.732979274E0,3.244721222E1,-3.026363373E0,-4.118152618E0
3.734980640E0,3.311281967E1,-3.083826065E0,-4.113364220E0
3.736982006E0,3.447755814E1,-3.146077156E0,-4.115758419E0
3.738983339E0,3.581835175E1,-3.251425266E0,-4.127729893E0
3.740984705E0,3.648156357E1,-3.306493521E0,-4.233078003E0
3.742986038E0,3.766912460E1,-3.440572977E0,-4.321666241E0
3.744987371E0,3.820783615E1,-3.510006905E0,-4.369551659E0
3.746988737E0,3.904583359E1,-3.632114887E0,-4.388705730E0
3.748990037E0,3.958694077E1,-3.830839634E0,-4.312088966E0
3.750991403E0,3.968989182E1,-3.940976381E0,-4.247443676E0
3.752992703E0,3.962046051E1,-4.197163582E0,-4.010410309E0
3.754994036E0,3.928286743E1,-4.515602112E0,-3.634509087E0
3.756995402E0,3.903625488E1,-4.671230316E0,-3.390293121E0
3.758996768E0,3.851430511E1,-4.920234680E0,-2.882706881E0
3.760998134E0,3.787982178E1,-5.066285610E0,-2.384697676E0
3.762999500E0,3.753504562E1,-5.095016956E0,-2.154847383E0
3.765000833E0,3.676169586E1,-5.073468208E0,-1.798100352E0
3.767002133E0,3.636185074E1,-5.032765865E0,-1.675992370E0
3.769003499E0,3.557173920E1,-4.901080608E0,-1.577827096E0
3.771004799E0,3.471459198E1,-4.788549423E0,-1.671203852E0
3.773006099E0,3.432671738E1,-4.697566986E0,-1.733454943E0
3.775012565E0,3.345280838E1,-4.551516533E0,-1.960911036E0
3.777013898E0,3.257410812E1,-4.388705730E0,-2.238646984E0
3.779015231E0,3.211440659E1,-4.319271564E0,-2.367937803E0
3.781016597E0,3.119979477E1,-4.201952457E0,-2.607365370E0
3.783017930E0,3.023490143E1,-4.051113129E0,-2.774964571E0
3.785019296E0,2.975844193E1,-3.976890564E0,-2.858764172E0
3.787020696E0,2.877918243E1,-3.830839634E0,-2.971295118E0
3.789022029E0,2.829553986E1,-3.682394743E0,-3.000026226E0
3.791022695E0,2.680869484E1,-3.541132450E0,-3.067065954E0
3.793024061E0,2.631547356E1,-3.471698523E0,-3.052700281E0
3.795025394E0,2.585577393E1,-3.421418667E0,-3.047911882E0
3.797026727E0,2.493397713E1,-3.258608103E0,-3.031152010E0
3.799028060E0,2.407922173E1,-3.105374336E0,-3.076643229E0
3.801029360E0,2.364346313E1,-3.026363373E0,-3.088614464E0
3.803030660E0,2.276715851E1,-2.887495518E0,-3.131711483E0
3.805031993E0,2.191000938E1,-2.724684715E0,-3.198751211E0
3.807033293E0,2.147425079E1,-2.636096478E0,-3.222693920E0
3.809034559E0,2.061470604E1,-2.480468750E0,-3.239453793E0
3.811035925E0,1.976952744E1,-2.332023621E0,-3.249030828E0
3.813037291E0,1.934574127E1,-2.264983892E0,-3.234665155E0
3.815038624E0,1.853886986E1,-2.102173328E0,-3.138894320E0
3.817039990E0,1.817972946E1,-2.027950764E0,-3.160442829E0
3.819041323E0,1.742792702E1,-1.879505754E0,-3.253819466E0
3.821042656E0,1.664260483E1,-1.721483588E0,-3.270579338E0
3.823043989E0,1.627867508E1,-1.652049661E0,-3.263396502E0
3.825045322E0,1.560588360E1,-1.510787368E0,-3.251425266E0
3.827046688E0,1.492351532E1,-1.362342358E0,-3.181991339E0
3.829048021E0,1.463620186E1,-1.290514112E0,-3.170019865E0
3.831052987E0,1.393946838E1,-1.173194647E0,-3.028757572E0
3.833054087E0,1.329061985E1,-1.077423692E0,-2.949746609E0
3.837052353E0,1.237600613E1,-9.026415944E-1,-2.844398499E0
3.839053753E0,1.199292278E1,-7.494080067E-1,-2.784541607E0
3.841055053E0,1.136562252E1,-6.584255695E-1,-2.722290516E0
3.843056353E0,1.065691757E1,-4.836435020E-1,-2.679193497E0
3.845057719E0,1.032411289E1,-4.142095447E-1,-2.691164970E0
3.847059052E0,9.620196342E0,-2.633702159E-1,-2.731867552E0
3.849060418E0,8.976136208E0,-1.364736706E-1,-2.798907280E0
3.851061818E0,8.303344727E0,-4.549122229E-2,-2.820455790E0
3.853063151E0,7.994483471E0,0.000000000E0,-2.846792698E0
3.855064484E0,7.376760483E0,5.027977005E-2,-2.889889717E0
3.857065850E0,7.043956280E0,7.182824612E-2,-2.877918243E0
3.859067216E0,6.411868095E0,1.125309169E-1,-2.851581335E0
3.861068582E0,5.858790398E0,1.149251908E-1,-2.842004299E0
3.863069982E0,5.547534943E0,1.484450400E-1,-2.846792698E0
3.865071348E0,4.898686409E0,1.628106833E-1,-2.722290516E0
3.867072714E0,4.632921696E0,1.699935049E-1,-2.655250788E0
3.869074180E0,4.139701366E0,1.652049571E-1,-2.581028223E0
3.871075480E0,3.560286522E0,2.011190802E-1,-2.475680113E0
3.873076813E0,3.270579338E0,2.130904645E-1,-2.363149166E0
3.875078179E0,2.796513081E0,2.106961906E-1,-2.162030220E0
3.877080212E0,2.320052385E0,2.083019018E-1,-1.980065227E0
3.879081545E0,2.080624819E0,2.226675600E-1,-1.901054144E0
3.881082878E0,1.623318315E0,2.250618339E-1,-1.685569525E0
3.883084178E0,1.158828974E0,2.609759569E-1,-1.470084786E0
3.885085511E0,8.739103079E-1,2.705530524E-1,-1.309668303E0
3.887086844E0,3.519583941E-1,2.729473412E-1,-1.007989645E0
3.889088177E0,1.053480953E-1,2.609759569E-1,-8.499675393E-1
3.893088243E0,-8.260248303E-1,1.771763414E-1,-2.944957912E-1
3.895088876E0,-1.051086664E0,1.484450400E-1,-1.675992310E-1
3.897090209E0,-1.450930476E0,1.197137386E-1,6.703969836E-2
3.899091509E0,-1.814860344E0,6.703969836E-2,3.375927508E-1
3.901092875E0,-2.008796453E0,4.788549617E-2,4.716721475E-1
3.903094241E0,-2.423006058E0,6.225114316E-2,6.751855016E-1
3.905095574E0,-2.837215662E0,8.858817071E-2,8.308133483E-1
3.907096940E0,-3.052700281E0,1.221080124E-1,8.858816624E-1
3.909098306E0,-3.464515686E0,1.675992310E-1,9.217957854E-1
3.911099639E0,-3.873936653E0,2.035133541E-1,9.553156495E-1
3.913100972E0,-4.089421272E0,2.178790122E-1,1.098972082E0
3.915102338E0,-4.534756660E0,3.471698463E-1,8.332076073E-1
3.917103671E0,-4.810098171E0,4.309694767E-1,6.919454336E-1
3.919105004E0,-5.197970390E0,5.698373914E-1,5.865973234E-1
3.921106370E0,-5.490072250E0,6.225114465E-1,6.033572555E-1
3.923107703E0,-5.669642925E0,6.919454336E-1,5.674431324E-1
3.925109036E0,-6.071880817E0,7.805336118E-1,4.381522834E-1
3.927110369E0,-6.447782040E0,9.265843630E-1,3.926610649E-1
3.929111669E0,-6.593832970E0,1.007989645E0,3.687183261E-1
3.931113002E0,-6.806923389E0,1.118126392E0,3.016786277E-1
3.933114368E0,-6.969734192E0,1.187560320E0,2.418217510E-1
3.935115701E0,-7.027196407E0,1.206714511E0,2.298503816E-1
3.937116334E0,-7.082264900E0,1.266571403E0,2.035133541E-1
3.939117667E0,-7.101418972E0,1.297696948E0,1.939362586E-1
3.941119033E0,-7.003253937E0,1.240234375E0,2.418217510E-1
3.943120399E0,-6.811711788E0,1.168406129E0,3.184385598E-1
3.945121765E0,-6.696786404E0,1.108549237E0,3.423812985E-1
3.947123098E0,-6.478907585E0,1.012778282E0,3.687183261E-1
3.949124398E0,-6.177228928E0,8.523618579E-1,4.429408312E-1
3.951125764E0,-5.997658253E0,7.637736797E-1,4.860377908E-1
3.953126364E0,-5.600208759E0,5.674431324E-1,5.722316504E-1
3.955127697E0,-5.217124939E0,3.471698463E-1,6.201171875E-1
3.957131363E0,-4.968120098E0,2.250618339E-1,6.081457734E-1
3.959132696E0,-4.503631115E0,5.027977005E-2,5.195576549E-1
3.961133762E0,-4.249837875E0,-5.985686928E-2,5.099805593E-1
3.963135128E0,-3.744645834E0,-2.466102988E-1,4.357580245E-1
3.965136728E0,-3.292127848E0,-3.878725171E-1,2.968900800E-1
3.967138028E0,-3.050306082E0,-4.453351200E-1,2.059076279E-1
3.969139094E0,-2.602576733E0,-5.482889414E-1,5.985686928E-2
3.971140360E0,-2.205127001E0,-6.536370516E-1,-7.422251999E-2
3.973141693E0,-2.018373728E0,-7.158881426E-1,-1.364736706E-1
3.975143026E0,-1.661626697E0,-8.260248303E-1,-2.657645047E-1
3.977144359E0,-1.338399649E0,-9.194015265E-1,-3.974496126E-1
3.979145725E0,-1.161223292E0,-9.816526771E-1,-4.477293789E-1
3.981147058E0,-8.667274714E-1,-1.082212210E0,-5.458946824E-1
3.983148358E0,-6.177229285E-1,-1.170800328E0,-5.865973234E-1
3.985149724E0,-5.219519138E-1,-1.223474383E0,-6.991282701E-1
3.987151690E0,-3.040728867E-1,-1.285725594E0,-7.948992252E-1
3.989153023E0,-2.106961906E-1,-1.328822494E0,-8.547561169E-1
3.991154389E0,-6.703969836E-2,-1.357553840E0,-9.505270720E-1
3.993155689E0,5.506832153E-2,-1.393467903E0,-9.864411950E-1
3.995156989E0,1.245022863E-1,-1.391073704E0,-9.888355136E-1
3.997158322E0,2.370332032E-1,-1.381496549E0,-1.022355318E0
3.999159688E0,4.118152559E-1,-1.393467903E0,-1.058269501E0
4.001161021E0,4.980091453E-1,-1.407833576E0,-1.072635174E0
4.003162054E0,6.488484740E-1,-1.400650740E0,-1.096577883E0
4.005163354E0,8.212362528E-1,-1.362342358E0,-1.125309110E0
4.007164687E0,9.098244309E-1,-1.352765322E0,-1.137280583E0
4.009166087E0,1.106154919E0,-1.273754239E0,-1.192348838E0
4.011167387E0,1.175588965E0,-1.228263021E0,-1.197137356E0
4.013168753E0,1.268965602E0,-1.120520592E0,-1.199531674E0
4.015170119E0,1.340793848E0,-9.768640995E-1,-1.149251938E0
4.019170485E0,1.343188167E0,-7.853221297E-1,-1.031932473E0
4.021172118E0,1.371919513E0,-6.416656375E-1,-9.170072675E-1
4.023173451E0,1.383890867E0,-5.985686779E-1,-7.877163887E-1
4.025174517E0,1.446141958E0,-4.429408312E-1,-6.871568561E-1
4.027175850E0,1.460507631E0,-3.040728867E-1,-5.865973234E-1
4.029177716E0,1.446141958E0,-2.466102988E-1,-4.956148863E-1
4.031179116E0,1.415016413E0,-1.221080124E-1,-3.160442710E-1
4.033180449E0,1.383890867E0,-7.182824425E-3,-2.106961906E-1
4.035181782E0,1.321639657E0,4.309694469E-2,-3.830839694E-2
4.037183115E0,1.266571403E0,1.029538140E-1,1.747820675E-1
4.039189748E0,1.204320192E0,1.819648892E-1,3.136500120E-1
4.041191348E0,1.156434774E0,1.891477108E-1,3.711125851E-1
4.043193014E0,9.960182905E-1,2.394274771E-1,4.812492430E-1
4.045194614E0,9.194015265E-1,2.442160249E-1,5.339232683E-1
4.047195347E0,7.925049663E-1,2.585816681E-1,6.057515144E-1
4.049196713E0,6.344828010E-1,2.298503816E-1,6.919454336E-1
4.051198079E0,5.530774593E-1,2.154847383E-1,6.847625971E-1
4.053199445E0,3.878725171E-1,1.747820675E-1,7.110996246E-1
4.055200811E0,2.322446555E-1,1.747820675E-1,6.440598965E-1
4.057202144E0,1.675992310E-1,1.819648892E-1,6.225114465E-1
4.059203477E0,4.549122229E-2,1.532335877E-1,5.411061049E-1
4.061204843E0,-2.394274808E-3,1.364736706E-1,4.956148863E-1
4.063206509E0,-9.816526622E-2,1.316851079E-1,3.830839694E-1
4.065207875E0,-1.699935049E-1,6.943397224E-2,3.112557232E-1
4.067209275E0,-2.083019018E-1,7.182824612E-2,2.370332032E-1
4.069210575E0,-3.136500120E-1,4.549122229E-2,1.484450400E-1
4.071211941E0,-4.046324492E-1,9.577099234E-3,3.830839694E-2
4.073213007E0,-4.453351200E-1,-7.182824425E-3,-9.577099234E-3
4.075214340E0,-5.315290093E-1,-1.675992459E-2,-1.053480953E-1
4.077215673E0,-6.033572555E-1,-2.394274808E-2,-2.178790122E-1
4.079217073E0,-6.225114465E-1,-2.154847234E-2,-2.729473412E-1
4.081218406E0,-6.512427330E-1,4.788549617E-3,-3.567469418E-1
4.083219706E0,-6.799740195E-1,2.633702382E-2,-3.854782581E-1
4.085221072E0,-6.967339516E-1,2.873129770E-2,-4.620950520E-1
4.087222438E0,-7.087053657E-1,4.549122229E-2,-5.147690773E-1
4.089225604E0,-7.087053657E-1,4.788549617E-2,-5.147690773E-1
4.091226937E0,-7.182824612E-1,5.506832153E-2,-5.602602959E-1
4.093228270E0,-7.110996246E-1,7.422251999E-2,-5.578660369E-1
4.095229603E0,-7.230709791E-1,6.943397224E-2,-5.482889414E-1
4.097230969E0,-6.991282701E-1,6.703969836E-2,-5.435003638E-1
4.101228068E0,-6.703969240E-1,6.943397224E-2,-5.578660369E-1
4.103229134E0,-6.488484740E-1,5.506832153E-2,-5.435003638E-1
4.105230200E0,-6.201171875E-1,5.746259540E-2,-5.650488734E-1
4.107231533E0,-6.296942830E-1,6.464541703E-2,-5.458946824E-1
4.109232899E0,-6.201171875E-1,6.464541703E-2,-5.315290093E-1
4.111234199E0,-6.225114465E-1,5.506832153E-2,-5.267404318E-1
4.113235232E0,-6.201171875E-1,4.549122229E-2,-5.291347504E-1
4.115236598E0,-6.416656375E-1,4.549122229E-2,-5.195576549E-1
4.117237964E0,-6.464542150E-1,4.309694469E-2,-5.147690773E-1
4.119239330E0,-6.847625971E-1,5.027977005E-2,-5.075862408E-1
4.121240630E0,-7.015225291E-1,7.661679387E-2,-4.740664065E-1
4.123241963E0,-7.326480746E-1,8.140534163E-2,-4.477293789E-1
4.125243296E0,-7.709565163E-1,9.577099234E-2,-4.333637357E-1
4.127244596E0,-8.212362528E-1,1.388679445E-1,-3.854782581E-1
4.129245962E0,-8.691217303E-1,1.412622184E-1,-3.591412306E-1
4.131247328E0,-9.002473354E-1,1.436564922E-1,-2.777358890E-1
4.133248961E0,-9.146129489E-1,1.292908341E-1,-2.370332032E-1
4.135250294E0,-9.337671995E-1,1.197137386E-1,-1.580221355E-1
4.137254494E0,-9.361614585E-1,9.816526622E-2,-1.125309169E-1
4.139255827E0,-9.265843630E-1,1.173194647E-1,-8.379961550E-2
4.141257160E0,-9.313728809E-1,1.005595401E-1,-5.267404765E-2
4.143258560E0,-9.457385540E-1,1.149251908E-1,-9.577099234E-3
4.145259860E0,-9.672870040E-1,1.053480953E-1,2.633702382E-2
4.147261193E0,-9.648927450E-1,1.053480953E-1,8.619388938E-2
4.151261825E0,-9.409499764E-1,7.661679387E-2,2.346389294E-1
4.153263191E0,-9.361614585E-1,6.464541703E-2,2.777358890E-1
4.155264557E0,-9.241901040E-1,4.549122229E-2,3.016786277E-1
4.157265890E0,-9.194015265E-1,4.309694469E-2,3.615354896E-1
4.159267223E0,-8.715160489E-1,3.351984918E-2,3.663240373E-1
4.161268589E0,-8.284190893E-1,4.549122229E-2,3.615354896E-1
4.163269922E0,-7.733507752E-1,4.549122229E-2,3.543526828E-1
4.165271255E0,-7.110996246E-1,4.788549617E-2,3.759011328E-1
4.167272621E0,-6.656084061E-1,4.549122229E-2,4.142095447E-1
4.169273954E0,-5.363175869E-1,4.788549617E-2,4.812492430E-1
4.171275320E0,-3.495641351E-1,4.788549617E-2,5.363175869E-1
4.173276953E0,-2.681587934E-1,4.309694469E-2,5.530774593E-1
4.175278253E0,-2.394274808E-2,6.464541703E-2,5.842030644E-1
4.177279786E0,1.628106833E-1,8.619388938E-2,5.889915824E-1
4.179281119E0,2.585816681E-1,1.029538140E-1,5.961744189E-1
4.181282485E0,4.501236677E-1,1.340793967E-1,6.033572555E-1
4.183283818E0,5.458946824E-1,1.460507661E-1,5.961744189E-1
4.185285184E0,7.446194887E-1,1.316851079E-1,6.392713785E-1
4.187286517E0,9.792584181E-1,1.508393139E-1,6.823683381E-1
4.189291650E0,1.091789365E0,1.532335877E-1,6.656084061E-1
4.191292883E0,1.359948039E0,1.245022863E-1,6.249057055E-1
4.193294483E0,1.652049661E0,7.901106775E-2,5.219519138E-1
4.195295849E0,1.805283189E0,5.746259540E-2,4.501236677E-1
4.197297782E0,2.083019018E0,4.309694469E-2,3.663240373E-1
4.199299082E0,2.341600657E0,-1.436564885E-2,2.801301479E-1
4.201300448E0,2.470891714E0,-4.549122229E-2,2.466102988E-1
4.203301781E0,2.688770533E0,-8.858817071E-2,2.968900800E-1
4.205303114E0,2.909043789E0,-1.412622184E-1,3.232271075E-1
4.207304480E0,3.019180536E0,-1.412622184E-1,4.620950520E-1
4.209305813E0,3.229876757E0,-1.819648892E-1,5.985686779E-1
4.211307146E0,3.447755814E0,-2.585816681E-1,7.039167881E-1
4.213308512E0,3.586623669E0,-3.040728867E-1,7.326480746E-1
4.215309845E0,3.859570980E0,-4.094209969E-1,7.374366522E-1
4.217311178E0,3.991255999E0,-4.644893110E-1,7.110996246E-1
4.219312544E0,4.302511692E0,-5.889915824E-1,5.435003638E-1
4.221313877E0,4.690384388E0,-7.398309112E-1,2.897072434E-1
4.223315210E0,4.920234680E0,-8.092648983E-1,1.388679445E-1
4.225316576E0,5.360781193E0,-9.170072675E-1,-1.604164094E-1
4.227317876E0,5.921041489E0,-1.060663700E0,-4.980091453E-1
4.229319209E0,6.205960274E0,-1.103760719E0,-6.392713785E-1
4.231320575E0,6.809317589E0,-1.201925993E0,-8.691217303E-1
4.233321908E0,7.151699066E0,-1.235445857E0,-9.433442950E-1
4.235323241E0,7.800547123E0,-1.271359921E0,-9.936240315E-1
4.237324407E0,8.526012421E0,-1.280937076E0,-9.912297726E-1
4.239325740E0,8.887548447E0,-1.268965602E0,-9.648927450E-1
4.241327073E0,9.579493523E0,-1.237840056E0,-8.858816624E-1
4.243328406E0,1.035284424E1,-1.170800328E0,-7.877163887E-1
4.245329706E0,1.078381348E1,-1.122914910E0,-7.661679387E-1
4.247331072E0,1.174631214E1,-1.079817891E0,-7.613793612E-1
4.251330005E0,1.356835556E1,-9.529213905E-1,-8.786988258E-1
4.253331071E0,1.502886295E1,-8.212362528E-1,-1.015172482E0
4.255332404E0,1.583812809E1,-7.087053657E-1,-1.094183564E0
4.259331670E0,1.975276756E1,-2.897072434E-1,-1.740637779E0
4.261333003E0,2.084216309E1,-1.819648892E-1,-2.049499273E0
4.263334336E0,2.297306633E1,6.943397224E-2,-2.834821463E0
4.265335736E0,2.522368431E1,3.782954216E-1,-3.885908127E0
4.267337069E0,2.686376381E1,4.381522834E-1,-4.386311531E0
4.269338402E0,3.057010078E1,3.806896806E-1,-5.403878212E0
4.271339735E0,3.430277634E1,7.182824612E-2,-6.723123550E0
