"Time (s)","Gyroscope x (rad/s)","Gyroscope y (rad/s)","Gyroscope z (rad/s)"
0.000000000E0,8.820894174E-3,-6.519538760E-1,-3.806545585E-2
2.001500000E-3,1.187522057E-2,-6.470669508E-1,-3.623285890E-2
4.002833000E-3,1.309695095E-2,-6.440126300E-1,-3.806545585E-2
6.004333000E-3,1.431868132E-2,-6.464561224E-1,-4.050891846E-2
8.005733000E-3,2.042733319E-2,-6.458452344E-1,-4.050891846E-2
1.000706600E-2,2.225993015E-2,-6.452343464E-1,-3.684372827E-2
1.200849400E-2,2.714684978E-2,-6.464561224E-1,-2.157209627E-2
1.400974400E-2,3.203377500E-2,-6.415691376E-1,-2.279382572E-2
1.601118800E-2,3.386636823E-2,-6.366822720E-1,-1.851776801E-2
1.801248800E-2,3.630983084E-2,-6.256866455E-1,-1.057652105E-2
2.001376000E-2,3.814242408E-2,-6.232432127E-1,-8.133059368E-3
2.201509300E-2,4.302934557E-2,-6.183562875E-1,-9.354790673E-3
2.401640000E-2,3.936415538E-2,-6.153019667E-1,-9.354790673E-3
2.601768500E-2,4.364021122E-2,-6.116367579E-1,-3.246137872E-3
2.801901800E-2,4.486194253E-2,-6.134693623E-1,-2.635272685E-3
3.002033000E-2,4.119675234E-2,-6.201888919E-1,-1.918116759E-4
3.202162400E-2,3.875329345E-2,-6.372931004E-1,1.640783972E-3
3.402462400E-2,3.753155842E-2,-6.391257048E-1,4.190535401E-4
3.602593900E-2,4.302934557E-2,-6.519538760E-1,4.695110489E-3
3.802723900E-2,4.241848364E-2,-6.507321000E-1,9.582032450E-3
4.002857200E-2,4.791627079E-2,-6.495104432E-1,1.080376282E-2
4.202989000E-2,4.547280818E-2,-6.568408012E-1,1.630154997E-2
4.403119400E-2,4.302934557E-2,-6.580625176E-1,2.668625861E-2
4.603252700E-2,4.180761799E-2,-6.531755924E-1,3.523837402E-2
4.803384700E-2,3.630983084E-2,-6.684472561E-1,3.523837402E-2
5.003515400E-2,3.692069650E-2,-6.739450097E-1,3.768183663E-2
5.203652400E-2,4.058588669E-2,-6.745558977E-1,3.523837402E-2
5.404016600E-2,5.830097944E-2,-6.818863153E-1,3.707096726E-2
5.604151000E-2,6.257703155E-2,-6.831079721E-1,3.829269856E-2
5.804287600E-2,6.257703155E-2,-6.861623526E-1,3.829269856E-2
6.004420900E-2,6.624222547E-2,-6.898275018E-1,4.012529552E-2
6.204554200E-2,6.624222547E-2,-6.892166734E-1,4.134702682E-2
6.404687500E-2,6.868569553E-2,-6.782210469E-1,4.379048571E-2
6.604794100E-2,6.624222547E-2,-6.733341813E-1,4.379048571E-2
6.804997400E-2,6.685309857E-2,-6.531755924E-1,4.134702682E-2
7.005204000E-2,6.502050161E-2,-6.403474212E-1,3.707096726E-2
7.205334000E-2,6.074443832E-2,-6.397365928E-1,3.523837402E-2
7.405470600E-2,6.074443832E-2,-6.171345711E-1,3.340577707E-2
7.605603900E-2,6.807482243E-2,-5.988085866E-1,3.279491141E-2
7.805740500E-2,6.990741938E-2,-5.884239078E-1,3.218404949E-2
8.005877100E-2,7.784866542E-2,-5.774282813E-1,3.340577707E-2
8.205987100E-2,7.540520281E-2,-5.719305277E-1,3.584923968E-2
8.406123700E-2,7.174001634E-2,-5.639892817E-1,3.401664272E-2
8.606263700E-2,6.685309857E-2,-5.597131848E-1,4.440135136E-2
8.806400300E-2,6.746395677E-2,-5.560480356E-1,4.195788875E-2
9.006536900E-2,6.563135982E-2,-5.609349608E-1,4.012529552E-2
9.206676900E-2,7.112915069E-2,-5.615458488E-1,3.890356421E-2
9.406713500E-2,6.868569553E-2,-5.707088113E-1,4.012529552E-2
9.606820100E-2,7.296174765E-2,-5.872021317E-1,4.317962006E-2
9.806960100E-2,7.907039672E-2,-5.975868702E-1,4.623394832E-2
1.000709670E-1,8.334644884E-2,-6.006411910E-1,4.928827286E-2
1.020723330E-1,9.067683667E-2,-6.030846834E-1,5.845125020E-2
1.040737330E-1,8.945510536E-2,-6.122476459E-1,6.028384715E-2
1.060750660E-1,9.006597102E-2,-6.122476459E-1,6.700336188E-2
1.080764320E-1,8.884423971E-2,-6.177453995E-1,6.211644411E-2
1.100785320E-1,8.701164275E-2,-6.232432127E-1,7.005769014E-2
1.120798320E-1,8.395732194E-2,-6.281301379E-1,7.433374971E-2
1.160801310E-1,8.701164275E-2,-6.409583092E-1,7.860980183E-2
1.180811970E-1,8.945510536E-2,-6.574516892E-1,8.288586140E-2
1.200824970E-1,9.128770232E-2,-6.721124053E-1,8.471845835E-2
1.220838630E-1,9.495289624E-2,-6.769993305E-1,8.471845835E-2
1.240852290E-1,1.010615453E-1,-6.934927106E-1,8.288586140E-2
1.260867950E-1,1.059484705E-1,-6.965470314E-1,8.716192096E-2
1.280874610E-1,1.138897166E-1,-6.965470314E-1,8.899451792E-2
1.300880610E-1,1.114462614E-1,-6.965470314E-1,9.449230134E-2
1.320893940E-1,1.187766418E-1,-7.020447850E-1,9.632489830E-2
1.340907600E-1,1.297722161E-1,-6.916601062E-1,9.388143569E-2
1.360920930E-1,1.432112455E-1,-6.824971437E-1,9.449230134E-2
1.380934260E-1,1.474872977E-1,-6.745558977E-1,8.838365227E-2
1.400947920E-1,1.572611481E-1,-6.745558977E-1,8.838365227E-2
1.420963580E-1,1.572611481E-1,-6.635603309E-1,8.777277917E-2
1.440976910E-1,1.597046107E-1,-6.660037637E-1,7.738807797E-2
1.460989910E-1,1.566502899E-1,-6.592842340E-1,7.372288406E-2
1.481002910E-1,1.645915359E-1,-6.507321000E-1,6.944682449E-2
1.501016240E-1,1.627589464E-1,-6.464561224E-1,6.150557846E-2
1.521029240E-1,1.676458567E-1,-6.440126300E-1,5.906211957E-2
1.541042240E-1,1.755871177E-1,-6.421800256E-1,5.906211957E-2
1.561058900E-1,1.731436402E-1,-6.434017420E-1,5.417519435E-2
1.581072230E-1,1.761979610E-1,-6.397365928E-1,5.051000044E-2
1.601085560E-1,1.755871177E-1,-6.427909136E-1,4.501221329E-2
1.621099220E-1,1.664241403E-1,-6.495104432E-1,4.073616117E-2
1.641112220E-1,1.639806628E-1,-6.635603309E-1,4.379048571E-2
1.661125880E-1,1.609263420E-1,-6.696689725E-1,4.134702682E-2
1.681139540E-1,1.505416334E-1,-6.910492778E-1,4.073616117E-2
1.701145540E-1,1.438221186E-1,-7.130404115E-1,3.584923968E-2
1.721159200E-1,1.413786411E-1,-7.173164487E-1,3.646010160E-2
1.741175530E-1,1.468764395E-1,-7.270902991E-1,4.012529552E-2
1.761192860E-1,1.523742229E-1,-7.252576947E-1,4.440135136E-2
1.781208860E-1,1.523742229E-1,-7.234250903E-1,4.806654528E-2
1.801222520E-1,1.444329768E-1,-7.380858660E-1,5.112086982E-2
1.821235520E-1,1.432112455E-1,-7.423619628E-1,5.661865696E-2
1.841248850E-1,1.358808577E-1,-7.527466416E-1,6.089471281E-2
1.861301850E-1,1.309939474E-1,-7.625204921E-1,6.578163058E-2
1.881315180E-1,1.297722161E-1,-7.667965889E-1,7.005769014E-2
1.901328510E-1,1.261070222E-1,-7.790138721E-1,7.616634667E-2
1.921342510E-1,1.322156638E-1,-7.845116854E-1,7.860980183E-2
1.941355840E-1,1.297722161E-1,-7.881768346E-1,8.410759270E-2
1.961368840E-1,1.279396117E-1,-8.010050058E-1,8.349672705E-2
1.981443840E-1,1.273287535E-1,-8.181092143E-1,8.899451792E-2
2.001456840E-1,1.267178953E-1,-8.266612887E-1,8.838365227E-2
2.021470170E-1,1.291613430E-1,-8.352134228E-1,8.716192096E-2
2.041483830E-1,1.267178953E-1,-8.425438404E-1,9.021624923E-2
2.061497490E-1,1.322156638E-1,-8.455981612E-1,8.960537612E-2
2.081511150E-1,1.468764395E-1,-8.486524820E-1,8.349672705E-2
2.101524810E-1,1.493199021E-1,-8.504850864E-1,8.410759270E-2
2.121538470E-1,1.456547081E-1,-8.547611237E-1,8.166413009E-2
2.141552130E-1,1.529850960E-1,-8.779739738E-1,8.166413009E-2
2.161565130E-1,1.554285586E-1,-8.828609586E-1,8.044239879E-2
2.181578460E-1,1.462655813E-1,-9.134041667E-1,7.066855580E-2
2.201591790E-1,1.413786411E-1,-9.201236963E-1,6.761422753E-2
2.221604790E-1,1.413786411E-1,-9.256215096E-1,6.272730976E-2
2.241618120E-1,1.499307752E-1,-9.201236963E-1,5.784038454E-2
2.261631780E-1,1.603154689E-1,-9.256215096E-1,5.234259740E-2
2.281645110E-1,1.633697897E-1,-9.268432856E-1,5.356433243E-2
2.301658770E-1,1.652023941E-1,-9.329519272E-1,4.867740721E-2
2.321672100E-1,1.645915359E-1,-9.347844720E-1,4.806654528E-2
2.341685430E-1,1.609263420E-1,-9.378387928E-1,4.562308267E-2
2.361694760E-1,1.645915359E-1,-9.457800388E-1,4.745567590E-2
2.381708420E-1,1.639806628E-1,-9.537212849E-1,4.012529552E-2
2.401722080E-1,1.590937525E-1,-9.634951949E-1,3.890356421E-2
2.421735740E-1,1.560394168E-1,-9.726581573E-1,3.951442987E-2
2.441749070E-1,1.627589464E-1,-9.769341946E-1,3.829269856E-2
2.481736070E-1,1.761979610E-1,-9.799885154E-1,3.096231632E-2
2.501749730E-1,1.792522967E-1,-9.818211198E-1,3.096231632E-2
2.521762730E-1,1.841392219E-1,-9.915949702E-1,2.974058501E-2
2.541828730E-1,1.896370053E-1,-9.970927238E-1,2.851885371E-2
2.561842390E-1,1.878044158E-1,-1.008088350E0,2.302106842E-2
2.601837720E-1,1.902478784E-1,-1.028246880E0,2.424279787E-2
2.621851380E-1,1.969673932E-1,-1.037409782E0,2.546452917E-2
2.641864380E-1,1.957456619E-1,-1.039853215E0,2.546452917E-2
2.661875040E-1,1.994108558E-1,-1.049016237E0,2.790798992E-2
2.681888370E-1,2.061303705E-1,-1.050238013E0,2.912972122E-2
2.701899370E-1,2.104064226E-1,-1.055735826E0,3.279491141E-2
2.721912370E-1,2.128498852E-1,-1.058179379E0,3.340577707E-2
2.741923030E-1,2.085738182E-1,-1.056957483E0,3.462750465E-2
2.761936360E-1,2.061303705E-1,-1.056957483E0,3.951442987E-2
2.781949690E-1,2.097955644E-1,-1.064288020E0,4.134702682E-2
2.801963350E-1,1.987999827E-1,-1.079559565E0,4.073616117E-2
2.821977010E-1,1.957456619E-1,-1.078337789E0,4.501221329E-2
2.841990670E-1,1.975782663E-1,-1.071618319E0,4.684481025E-2
2.862004000E-1,2.012434453E-1,-1.068563938E0,4.928827286E-2
2.882017330E-1,2.012434453E-1,-1.058179379E0,5.112086982E-2
2.902030660E-1,1.933021992E-1,-1.065509677E0,5.173173547E-2
2.922055320E-1,1.865826845E-1,-1.057568312E0,5.661865696E-2
2.942068650E-1,1.804740280E-1,-1.052681565E0,6.028384715E-2
2.962082310E-1,1.737545133E-1,-1.052070498E0,5.600779131E-2
2.982095640E-1,1.719219238E-1,-1.039242387E0,6.150557846E-2
3.002108970E-1,1.682567298E-1,-1.036798954E0,6.333817542E-2
3.022122630E-1,1.578720063E-1,-1.038631558E0,6.272730976E-2
3.042136290E-1,1.535959691E-1,-1.036798954E0,6.455990672E-2
3.062149950E-1,1.529850960E-1,-1.021527290E0,6.639250368E-2
3.082163950E-1,1.529850960E-1,-1.004423141E0,6.883595884E-2
3.102177610E-1,1.529850960E-1,-9.995362163E-1,6.883595884E-2
3.122190940E-1,1.456547081E-1,-9.830428362E-1,6.944682449E-2
3.162165600E-1,1.352699995E-1,-9.677711725E-1,7.311201841E-2
3.202162590E-1,1.273287535E-1,-9.457800388E-1,7.127942145E-2
3.222176250E-1,1.303830743E-1,-9.378387928E-1,7.311201841E-2
3.242189580E-1,1.267178953E-1,-9.140150547E-1,7.677720487E-2
3.262205910E-1,1.309939474E-1,-9.054629803E-1,7.616634667E-2
3.282219570E-1,1.322156638E-1,-9.011868834E-1,7.372288406E-2
3.302235570E-1,1.309939474E-1,-8.908022046E-1,7.799893618E-2
3.322249570E-1,1.291613430E-1,-8.810282946E-1,7.922067493E-2
3.342265900E-1,1.389351934E-1,-8.688110113E-1,7.738807797E-2
3.362279560E-1,1.358808577E-1,-8.431547284E-1,7.860980183E-2
3.382293220E-1,1.340482682E-1,-8.327699304E-1,7.983153313E-2
3.402306220E-1,1.407677978E-1,-8.095571399E-1,8.471845835E-2
3.422319550E-1,1.401569247E-1,-7.875660062E-1,8.532932401E-2
3.442332880E-1,1.426003873E-1,-7.808464170E-1,8.655105531E-2
3.462345880E-1,1.401569247E-1,-7.545792460E-1,8.777277917E-2
3.482359210E-1,1.456547081E-1,-7.252576947E-1,9.754662961E-2
3.502372870E-1,1.407677978E-1,-7.160947323E-1,9.327057004E-2
3.522375200E-1,1.352699995E-1,-6.824971437E-1,9.876835346E-2
3.542388530E-1,1.383243203E-1,-6.715015769E-1,9.754662961E-2
3.562401860E-1,1.346591413E-1,-6.476777792E-1,1.024335474E-1
3.582415190E-1,1.383243203E-1,-6.324061751E-1,1.060987413E-1
3.602428520E-1,1.389351934E-1,-6.195780039E-1,1.036552787E-1
3.622441850E-1,1.413786411E-1,-5.994194150E-1,1.042661443E-1
3.642455180E-1,1.389351934E-1,-5.817043185E-1,1.030444205E-1
3.662468840E-1,1.358808577E-1,-5.652109981E-1,1.067096069E-1
3.682481840E-1,1.432112455E-1,-5.511611104E-1,1.079313383E-1
3.702494840E-1,1.444329768E-1,-5.273373127E-1,1.024335474E-1
3.722505500E-1,1.456547081E-1,-5.187852979E-1,1.006009504E-1
3.742518830E-1,1.450438350E-1,-5.029027462E-1,1.122073904E-1
3.762531830E-1,1.401569247E-1,-4.882419705E-1,1.109856665E-1
3.782600490E-1,1.383243203E-1,-4.790790081E-1,9.693576396E-2
3.802614150E-1,1.432112455E-1,-4.528118074E-1,9.510316700E-2
3.822627150E-1,1.426003873E-1,-4.424270988E-1,9.021624923E-2
3.842641150E-1,1.468764395E-1,-4.228793979E-1,8.777277917E-2
3.862654480E-1,1.468764395E-1,-4.014991224E-1,7.555548102E-2
3.882667480E-1,1.462655813E-1,-3.837840259E-1,7.494460791E-2
3.902677810E-1,1.407677978E-1,-3.489647210E-1,6.089471281E-2
3.922693810E-1,1.401569247E-1,-3.184214532E-1,4.989913851E-2
3.942707140E-1,1.389351934E-1,-3.123128116E-1,4.684481025E-2
3.962717470E-1,1.395460516E-1,-2.890999019E-1,3.462750465E-2
3.982730800E-1,1.432112455E-1,-2.768825889E-1,1.019289810E-2
4.002744130E-1,1.487090290E-1,-2.664978802E-1,3.473379882E-3
4.022757790E-1,1.529850960E-1,-2.414524257E-1,-1.546344254E-2
4.042771450E-1,1.590937525E-1,-2.353437841E-1,-1.485257689E-2
4.062785110E-1,1.597046107E-1,-2.096874416E-1,-2.401555702E-2
4.082795770E-1,1.658132672E-1,-1.950266659E-1,-3.928718716E-2
4.102809100E-1,1.658132672E-1,-1.846419722E-1,-4.845016450E-2
4.122822430E-1,1.707001776E-1,-1.663160026E-1,-7.166304439E-2
4.142836090E-1,1.798631549E-1,-1.553204358E-1,-8.204775304E-2
4.162849420E-1,1.761979610E-1,-1.473791748E-1,-8.754553646E-2
4.182862750E-1,1.829174906E-1,-1.339401454E-1,-9.426505864E-2
4.202876080E-1,1.865826845E-1,-1.241663024E-1,-9.976284951E-2
4.222951740E-1,1.865826845E-1,-1.119489968E-1,-1.052606329E-1
4.242966400E-1,1.884152889E-1,-9.545563161E-2,-1.095366925E-1
4.262976730E-1,1.933021992E-1,-9.423390031E-2,-1.077040955E-1
4.282990060E-1,1.975782663E-1,-9.728822857E-2,-1.028171703E-1
4.303003720E-1,1.902478784E-1,-8.568179607E-2,-1.107584238E-1
4.323020380E-1,1.810849011E-1,-7.224275917E-2,-1.150344759E-1
4.343033710E-1,1.798631549E-1,-6.124718115E-2,-1.168670729E-1
4.363047710E-1,1.871935427E-1,-5.758199096E-2,-1.089258268E-1
4.403018710E-1,1.884152889E-1,-3.436911106E-2,-1.052606329E-1
4.423032710E-1,1.908587366E-1,-2.215180546E-2,-9.243246168E-2
4.443046040E-1,1.896370053E-1,-1.115623210E-2,-9.426505864E-2
4.463059370E-1,1.890261322E-1,5.947994534E-3,-8.754553646E-2
4.483081700E-1,1.841392219E-1,3.710212186E-2,-8.326948434E-2
4.503098030E-1,1.841392219E-1,5.237375200E-2,-8.449121565E-2
4.523108690E-1,1.719219238E-1,7.008884102E-2,-7.593910396E-2
4.543122350E-1,1.676458567E-1,7.375403494E-2,-7.410650700E-2
4.563139010E-1,1.658132672E-1,9.452345222E-2,-6.738698483E-2
4.583152340E-1,1.658132672E-1,1.214015260E-1,-6.188920140E-2
4.603166000E-1,1.603154689E-1,1.372840255E-1,-5.944573879E-2
4.623179330E-1,1.615372002E-1,1.647729576E-1,-5.394795164E-2
4.643192660E-1,1.627589464E-1,1.916510314E-1,-4.967189953E-2
4.663206320E-1,1.578720063E-1,2.008140087E-1,-4.539583996E-2
4.683221650E-1,1.627589464E-1,2.191399634E-1,-4.356324300E-2
4.703234980E-1,1.615372002E-1,2.454071641E-1,-4.478497431E-2
4.723248640E-1,1.658132672E-1,2.466289103E-1,-4.173064977E-2
4.743275300E-1,1.731436402E-1,2.655657232E-1,-4.478497431E-2
4.763288300E-1,1.774197072E-1,2.747286856E-1,-4.478497431E-2
4.783323960E-1,1.841392219E-1,2.771721482E-1,-4.417410865E-2
4.803337290E-1,1.878044158E-1,2.906112075E-1,-5.028276145E-2
4.843300280E-1,2.012434453E-1,3.046610951E-1,-6.433266401E-2
4.863316610E-1,2.097955644E-1,3.162675500E-1,-6.921958178E-2
4.883329940E-1,2.104064226E-1,3.235979378E-1,-6.799785793E-2
4.903350270E-1,2.195694000E-1,3.315391839E-1,-7.960429043E-2
4.923363600E-1,2.275106460E-1,3.339826465E-1,-8.876727521E-2
4.943376930E-1,2.250671834E-1,3.376478255E-1,-9.548678994E-2
4.963390260E-1,2.305649668E-1,3.413130045E-1,-1.113692820E-1
4.983403920E-1,2.354519069E-1,3.474216759E-1,-1.150344759E-1
5.003417580E-1,2.446148843E-1,3.614715636E-1,-1.296952367E-1
5.023427910E-1,2.495017946E-1,3.602498472E-1,-1.400799602E-1
5.043441240E-1,2.562213242E-1,3.663584888E-1,-1.486320645E-1
5.063454570E-1,2.684386373E-1,3.742997348E-1,-1.602385044E-1
5.083459900E-1,2.763798833E-1,3.785758018E-1,-1.675688922E-1
5.103473230E-1,2.794342041E-1,3.804083765E-1,-1.748992801E-1
5.123486560E-1,2.947058380E-1,3.926256895E-1,-1.816187948E-1
5.143499560E-1,3.014253676E-1,4.030103981E-1,-1.907817721E-1
5.163512890E-1,3.099774420E-1,4.097299278E-1,-1.962795556E-1
5.183526550E-1,3.136426508E-1,4.091190398E-1,-1.999447495E-1
5.203539880E-1,3.154752553E-1,4.023995399E-1,-2.097185999E-1
5.223553210E-1,3.130317926E-1,4.017886519E-1,-2.103294581E-1
5.243612870E-1,3.283033967E-1,4.133951068E-1,-2.109403163E-1
5.263626200E-1,3.313577473E-1,4.188929200E-1,-2.084968537E-1
5.283640200E-1,3.362446725E-1,4.317210615E-1,-2.127729207E-1
5.303653860E-1,3.441859186E-1,4.372188747E-1,-2.133837938E-1
5.323667190E-1,3.447967768E-1,4.421057701E-1,-2.121620476E-1
5.343667190E-1,3.539597392E-1,4.463818371E-1,-2.091077268E-1
5.363681190E-1,3.570140600E-1,4.549339712E-1,-2.072751373E-1
5.403685850E-1,3.741183281E-1,4.714273214E-1,-2.036099434E-1
5.423699850E-1,3.783943653E-1,4.805903137E-1,-1.962795556E-1
5.443712850E-1,3.771726489E-1,4.921967089E-1,-1.938360929E-1
5.463726180E-1,3.845030069E-1,5.093009472E-1,-1.907817721E-1
5.483740180E-1,3.869464695E-1,5.178530812E-1,-1.920034885E-1
5.503746840E-1,3.961094618E-1,5.367898941E-1,-1.846731156E-1
5.523759840E-1,3.985529244E-1,5.600027442E-1,-1.840622574E-1
5.543773500E-1,3.936659992E-1,5.709983706E-1,-1.785644740E-1
5.563786830E-1,3.936659992E-1,6.021524668E-1,-1.736775339E-1
5.583800160E-1,3.912225366E-1,6.308631301E-1,-1.767318696E-1
5.603813490E-1,3.912225366E-1,6.424695849E-1,-1.706232131E-1
5.623829820E-1,3.814486861E-1,6.754562855E-1,-1.632928252E-1
5.643843150E-1,3.759509027E-1,7.023343444E-1,-1.516863853E-1
5.663856480E-1,3.692313731E-1,7.218821049E-1,-1.474103332E-1
5.683869480E-1,3.564032316E-1,7.487601042E-1,-1.425234079E-1
5.703882810E-1,3.472402394E-1,7.860229015E-1,-1.333604306E-1
5.723899140E-1,3.411315978E-1,7.982402444E-1,-1.303061098E-1
5.743912140E-1,3.325794637E-1,8.275617957E-1,-1.241974533E-1
5.763925470E-1,3.246382177E-1,8.355029821E-1,-1.223648638E-1
5.783938800E-1,3.179186881E-1,8.605484366E-1,-1.095366925E-1
5.803973800E-1,3.063122630E-1,8.782635331E-1,-1.003737077E-1
5.823987130E-1,3.038688004E-1,8.843721747E-1,-9.548678994E-2
5.863967790E-1,2.971493006E-1,9.088068008E-1,-8.021515608E-2
5.883981790E-1,3.014253676E-1,9.081959724E-1,-7.654996216E-2
5.903994790E-1,2.989818752E-1,9.216350317E-1,-6.677612662E-2
5.924007790E-1,3.026470542E-1,9.301871061E-1,-6.433266401E-2
5.944021450E-1,3.002036214E-1,9.332414269E-1,-5.822401121E-2
5.964034780E-1,2.910406590E-1,9.466804862E-1,-4.906103015E-2
5.984048110E-1,2.940949798E-1,9.552326202E-1,-4.906103015E-2
6.004062110E-1,2.879863083E-1,9.656172991E-1,-4.600670561E-2
6.024075110E-1,2.849319875E-1,9.778345823E-1,-4.234151542E-2
6.044088440E-1,2.867645919E-1,9.851650000E-1,-3.745459020E-2
6.064102100E-1,2.818776667E-1,9.918845296E-1,-3.623285890E-2
6.084115430E-1,2.788233459E-1,9.937170744E-1,-2.951334417E-2
6.104128430E-1,2.757690251E-1,9.979931712E-1,-2.890247665E-2
6.124146430E-1,2.714929581E-1,9.986039996E-1,-2.829161286E-2
6.144159430E-1,2.629408240E-1,1.006545305E0,-2.584815212E-2
6.164172760E-1,2.617191076E-1,1.008988738E0,-2.401555702E-2
6.184186420E-1,2.531670034E-1,1.000436544E0,-2.951334417E-2
6.204200080E-1,2.488909364E-1,1.005934358E0,-2.584815212E-2
6.224213080E-1,2.440040112E-1,1.005934358E0,-1.546344254E-2
6.244226410E-1,2.421714216E-1,1.000436544E0,-6.911329459E-3
6.264255740E-1,2.354519069E-1,9.986039996E-1,-8.026768919E-4
6.284269070E-1,2.354519069E-1,9.912736416E-1,8.360302076E-3
6.304282730E-1,2.378953546E-1,9.821106791E-1,2.485366166E-2
6.324293390E-1,2.366736233E-1,9.753910899E-1,3.462750465E-2
6.344307390E-1,2.299541235E-1,9.656172991E-1,5.661865696E-2
6.364321050E-1,2.220128626E-1,9.448478818E-1,7.922067493E-2
6.384334050E-1,2.287323773E-1,9.295762181E-1,8.899451792E-2
6.424339710E-1,1.963565201E-1,9.075850844E-1,1.396963298E-1
6.444353040E-1,1.896370053E-1,9.057524800E-1,1.513027698E-1
6.464366370E-1,1.761979610E-1,8.862048388E-1,1.769591123E-1
6.484379700E-1,1.707001776E-1,8.800961375E-1,1.910089999E-1
6.504393030E-1,1.560394168E-1,8.611593843E-1,2.166653425E-1
6.524403690E-1,1.462655813E-1,8.495529294E-1,2.417108268E-1
6.544416690E-1,1.383243203E-1,8.428333998E-1,2.508738041E-1
6.564430020E-1,1.297722161E-1,8.403899074E-1,2.716432214E-1
6.584443680E-1,1.206092387E-1,8.257291317E-1,2.826387882E-1
6.604457010E-1,1.218309626E-1,8.251183033E-1,2.875257134E-1
6.624470670E-1,1.059484705E-1,8.202313781E-1,2.893583179E-1
6.644484670E-1,1.206092387E-1,7.896881104E-1,2.875257134E-1
6.664495000E-1,1.077810675E-1,8.019053936E-1,2.856931090E-1
6.684508330E-1,9.495289624E-2,8.165661693E-1,2.863039970E-1
6.704522330E-1,8.640077710E-2,8.232856989E-1,2.869148552E-1
6.724531330E-1,8.334644884E-2,8.171770573E-1,2.826387882E-1
6.744544990E-1,8.212472498E-2,8.147335649E-1,2.783627212E-1
6.764558650E-1,8.517904580E-2,8.061814308E-1,2.771410346E-1
6.784571980E-1,8.823337406E-2,7.994619608E-1,2.771410346E-1
6.804585310E-1,8.029212803E-2,7.951859236E-1,2.753084004E-1
6.824598970E-1,7.662694156E-2,7.945750356E-1,2.820279300E-1
6.844612300E-1,9.617462009E-2,7.585340142E-1,2.801953554E-1
6.884623620E-1,7.479434460E-2,7.854120731E-1,2.875257134E-1
6.904636950E-1,5.830097944E-2,8.092357516E-1,2.844713926E-1
6.924650280E-1,6.318789721E-2,8.092357516E-1,3.040190637E-1
6.944663940E-1,6.440962851E-2,8.043488860E-1,3.052408099E-1
6.964677270E-1,6.685309857E-2,8.055706024E-1,2.960778177E-1
6.984690600E-1,6.013357639E-2,8.074032068E-1,2.936343551E-1
7.004723260E-1,4.852713272E-2,8.251183033E-1,2.887474298E-1
7.024736590E-1,4.302934557E-2,8.489420414E-1,2.728649676E-1
7.044749920E-1,4.547280818E-2,8.538289666E-1,2.612585127E-1
7.064763250E-1,3.814242408E-2,8.593267202E-1,2.435434312E-1
7.084776580E-1,3.875329345E-2,8.733766675E-1,2.239957303E-1
7.104837240E-1,3.630983084E-2,8.770418167E-1,2.087241113E-1
7.124853900E-1,3.997502103E-2,8.862048388E-1,1.849003583E-1
7.144867560E-1,4.302934557E-2,8.776527047E-1,1.433615237E-1
7.164880890E-1,5.035972968E-2,8.691005707E-1,1.170943156E-1
7.184894220E-1,7.051828504E-2,8.196204901E-1,6.333817542E-2
7.204907550E-1,6.807482243E-2,8.141227365E-1,4.379048571E-2
7.224921210E-1,6.074443832E-2,8.086249232E-1,1.263635792E-2
7.244934540E-1,4.913800210E-2,8.037379980E-1,-3.317853436E-2
7.264983870E-1,5.402491987E-2,7.896881104E-1,-5.578054860E-2
7.285001200E-1,5.646838248E-2,7.554796934E-1,-9.182160348E-2
7.305014200E-1,6.318789721E-2,7.096647620E-1,-1.370256245E-1
7.325027530E-1,8.029212803E-2,6.620172858E-1,-1.669580191E-1
7.345041190E-1,9.128770232E-2,6.259762049E-1,-2.133837938E-1
7.365054190E-1,9.739635140E-2,6.045959592E-1,-2.292662859E-1
7.385067520E-1,9.312029928E-2,5.972655416E-1,-2.353749275E-1
7.405081180E-1,8.456818759E-2,5.789395571E-1,-2.365966588E-1
7.425094840E-1,9.617462009E-2,5.422876477E-1,-2.433161736E-1
7.445105840E-1,9.983981401E-2,5.288486481E-1,-2.451487780E-1
7.465119170E-1,1.242744252E-1,4.958619177E-1,-2.463704944E-1
7.485132500E-1,1.309939474E-1,4.781468213E-1,-2.427053005E-1
7.505145830E-1,1.505416334E-1,4.494361579E-1,-2.384292632E-1
7.525159490E-1,1.639806628E-1,4.243906736E-1,-2.310988754E-1
7.545172490E-1,1.743653715E-1,4.268341362E-1,-2.231576294E-1
7.565192820E-1,1.896370053E-1,3.981234729E-1,-2.115511894E-1
7.585206820E-1,1.920804679E-1,3.859061897E-1,-2.011664808E-1
7.625213820E-1,2.018543035E-1,3.565846682E-1,-1.816187948E-1
7.645227480E-1,1.994108558E-1,3.455890715E-1,-1.651254296E-1
7.665240810E-1,2.012434453E-1,3.407021463E-1,-1.498537958E-1
7.685254140E-1,2.012434453E-1,3.205436170E-1,-1.351930201E-1
7.725233800E-1,1.823066324E-1,2.942763865E-1,-1.046497673E-1
7.745247130E-1,1.682567298E-1,2.686200440E-1,-8.388034999E-2
7.765267790E-1,1.627589464E-1,2.545701563E-1,-7.471737266E-2
7.785281120E-1,1.542068124E-1,2.301355451E-1,-5.578054860E-2
7.805294450E-1,1.444329768E-1,2.069226503E-1,-3.684372827E-2
7.825307780E-1,1.395460516E-1,1.965379417E-1,-3.256766871E-2
7.845321110E-1,1.254961491E-1,1.721033454E-1,-1.424171217E-2
7.885315770E-1,1.028941423E-1,1.452252716E-1,8.971166797E-3
7.905329100E-1,8.090299368E-2,1.317862421E-1,2.302106842E-2
7.925342760E-1,6.807482243E-2,1.275101751E-1,3.279491141E-2
7.945356090E-1,5.830097944E-2,1.238449886E-1,4.317962006E-2
7.965367090E-1,4.547280818E-2,1.128494143E-1,5.417519435E-2
7.985380750E-1,4.241848364E-2,1.104059517E-1,5.539692566E-2
8.005394080E-1,3.142290935E-2,1.036864296E-1,6.272730976E-2
8.025407080E-1,2.959031239E-2,9.085825831E-2,6.944682449E-2
8.045423080E-1,2.531425655E-2,8.902566880E-2,7.066855580E-2
8.065436740E-1,3.936415538E-2,8.413875103E-2,7.616634667E-2
8.085450070E-1,5.402491987E-2,7.436490059E-2,7.433374971E-2
8.105463730E-1,5.769011378E-2,7.192143798E-2,7.127942145E-2
8.125477060E-1,6.929655373E-2,6.275846064E-2,7.799893618E-2
8.145490720E-1,8.212472498E-2,5.664981157E-2,9.143797308E-2
8.165497050E-1,8.762251586E-2,4.870856181E-2,9.937922657E-2
8.185507380E-1,9.678549320E-2,4.626510292E-2,1.177051738E-1
8.205520710E-1,1.035050079E-1,5.298461765E-2,1.244246960E-1
8.225531710E-1,1.126679853E-1,5.115202442E-2,1.335876733E-1
8.245545040E-1,1.230526939E-1,5.970413610E-2,1.464158446E-1
8.265556040E-1,1.309939474E-1,6.398019195E-2,1.555788219E-1
8.285569700E-1,1.309939474E-1,7.803008705E-2,1.653526723E-1
8.305583360E-1,1.316048056E-1,9.207999706E-2,1.757373810E-1
8.325596690E-1,1.371026039E-1,9.757778049E-2,1.836786419E-1
8.345610350E-1,1.413786411E-1,9.879951179E-2,1.952850670E-1
8.365616350E-1,1.407677978E-1,1.049081683E-1,2.044480443E-1
8.385629350E-1,1.426003873E-1,1.097950861E-1,2.087241113E-1
8.405643010E-1,1.383243203E-1,1.128494143E-1,2.166653425E-1
8.425653340E-1,1.450438350E-1,1.183471978E-1,2.233848721E-1
8.445666670E-1,1.419895142E-1,1.207906678E-1,2.239957303E-1
8.465673000E-1,1.413786411E-1,1.226232573E-1,2.264391929E-1
8.485692330E-1,1.389351934E-1,1.281210482E-1,2.264391929E-1
8.505705990E-1,1.358808577E-1,1.397274733E-1,2.319369763E-1
8.525719650E-1,1.309939474E-1,1.501121968E-1,2.337695807E-1
8.545732980E-1,1.285504699E-1,1.592751741E-1,2.337695807E-1
8.565748980E-1,1.242744252E-1,1.666055620E-1,2.270500660E-1
8.585762310E-1,1.157223135E-1,1.843206435E-1,2.276609242E-1
8.605775640E-1,1.126679853E-1,1.879858375E-1,2.252174616E-1
8.625789640E-1,1.083919331E-1,2.038683295E-1,2.288826555E-1
8.645803300E-1,1.059484705E-1,2.142530382E-1,2.233848721E-1
8.665816300E-1,1.028941423E-1,2.191399634E-1,2.221631259E-1
8.685826960E-1,1.004506871E-1,2.228051573E-1,2.184979469E-1
8.705840290E-1,9.189856797E-2,2.368550599E-1,2.209414095E-1
8.725853620E-1,9.556376189E-2,2.423528433E-1,2.178870887E-1
8.745928620E-1,9.678549320E-2,2.502940893E-1,2.178870887E-1
8.765942280E-1,9.678549320E-2,2.527375519E-1,2.184979469E-1
8.785958280E-1,9.128770232E-2,2.594570518E-1,2.148327529E-1
8.805975280E-1,9.312029928E-2,2.570136189E-1,2.148327529E-1
8.825998610E-1,9.312029928E-2,2.619005442E-1,2.117784321E-1
8.846011940E-1,9.189856797E-2,2.594570518E-1,2.105567008E-1
8.866028270E-1,1.028941423E-1,2.594570518E-1,2.056697756E-1
8.886041600E-1,9.983981401E-2,2.588461936E-1,2.020045817E-1
8.906054600E-1,1.071701944E-1,2.521266937E-1,1.989502609E-1
8.926067930E-1,1.096136644E-1,2.502940893E-1,1.989502609E-1
8.946080930E-1,1.193875074E-1,2.484614998E-1,1.965067834E-1
8.966094590E-1,1.273287535E-1,2.386876494E-1,1.916198730E-1
8.986108590E-1,1.279396117E-1,2.338007390E-1,1.885655522E-1
9.006121920E-1,1.383243203E-1,2.215834260E-1,1.818460375E-1
9.026137920E-1,1.517633647E-1,2.081443965E-1,1.739047915E-1
9.046151580E-1,1.517633647E-1,2.075335234E-1,1.732939184E-1
9.066164910E-1,1.590937525E-1,1.983705461E-1,1.696287245E-1
9.086174910E-1,1.780305654E-1,1.806554496E-1,1.629092097E-1
9.106188240E-1,1.792522967E-1,1.861532480E-1,1.604657471E-1
9.126201570E-1,1.902478784E-1,1.763793975E-1,1.586331427E-1
9.146214900E-1,1.975782663E-1,1.739359498E-1,1.555788219E-1
9.166228230E-1,2.079629600E-1,1.696598828E-1,1.537462324E-1
9.186305230E-1,2.171259522E-1,1.641620994E-1,1.482484490E-1
9.206323230E-1,2.232345939E-1,1.672164202E-1,1.500810385E-1
9.226336230E-1,2.409496903E-1,1.623294950E-1,1.439723819E-1
9.246349560E-1,2.470583320E-1,1.672164202E-1,1.439723819E-1
9.266363220E-1,2.519452572E-1,1.733250767E-1,1.415289342E-1
9.286379220E-1,2.611082494E-1,1.751576662E-1,1.378637403E-1
9.306389880E-1,2.653843164E-1,1.739359498E-1,1.341985464E-1
9.326403540E-1,2.721038163E-1,1.739359498E-1,1.317550838E-1
9.366365870E-1,2.898189127E-1,1.788228601E-1,1.250355542E-1
9.386379870E-1,2.898189127E-1,1.782119870E-1,1.183160469E-1
9.406389870E-1,2.934840918E-1,1.794337332E-1,1.146508530E-1
9.426403200E-1,2.934840918E-1,1.782119870E-1,1.134291217E-1
9.446416530E-1,2.965384126E-1,1.800445914E-1,1.091530696E-1
9.466429530E-1,3.002036214E-1,1.763793975E-1,1.109856665E-1
9.486442860E-1,2.959275544E-1,1.794337332E-1,1.073204726E-1
9.506456860E-1,3.057014048E-1,1.647729576E-1,1.067096069E-1
9.526470520E-1,3.050905466E-1,1.647729576E-1,1.073204726E-1
9.546484180E-1,3.057014048E-1,1.598860323E-1,1.042661443E-1
9.566497840E-1,3.002036214E-1,1.507230550E-1,1.079313383E-1
9.586511170E-1,3.020362258E-1,1.391166300E-1,1.048770174E-1
9.606524500E-1,2.971493006E-1,1.342296898E-1,1.042661443E-1
9.626538500E-1,2.904297709E-1,1.244558468E-1,1.054878756E-1
9.646551830E-1,2.922623456E-1,1.177363321E-1,1.024335474E-1
9.666562160E-1,2.879863083E-1,1.134602800E-1,1.042661443E-1
9.686575820E-1,2.830993831E-1,1.018538326E-1,1.042661443E-1
9.706589480E-1,2.788233459E-1,9.635604918E-2,1.060987413E-1
9.726602810E-1,2.733255327E-1,8.963653445E-2,1.042661443E-1
9.746616140E-1,2.672168911E-1,7.803008705E-2,1.060987413E-1
9.766629800E-1,2.690494955E-1,7.497576624E-2,1.085421965E-1
9.806588130E-1,2.592756450E-1,4.076731578E-2,1.085421965E-1
9.826601790E-1,2.556104660E-1,3.465865925E-2,1.103747934E-1
9.846615120E-1,2.525561154E-1,1.755443402E-2,1.073204726E-1
9.866628780E-1,2.470583320E-1,9.613187052E-3,1.060987413E-1
9.886642110E-1,2.427822948E-1,3.504534019E-3,1.079313383E-1
9.906656770E-1,2.415605485E-1,-1.115623210E-2,1.085421965E-1
9.926670100E-1,2.378953546E-1,-1.298882812E-2,1.030444205E-1
9.946683430E-1,2.403388172E-1,-2.337353677E-2,1.036552787E-1
9.966699760E-1,2.336193025E-1,-2.948218957E-2,1.048770174E-1
9.986713090E-1,2.299541235E-1,-3.192564845E-2,1.042661443E-1
1.000672675E0,2.317867130E-1,-3.375824913E-2,1.030444205E-1
1.002673341E0,2.275106460E-1,-3.131478652E-2,1.060987413E-1
1.004674674E0,2.275106460E-1,-3.559084237E-2,1.060987413E-1
1.006676007E0,2.232345939E-1,-3.681257367E-2,1.042661443E-1
1.008677373E0,2.293432504E-1,-3.803430125E-2,1.030444205E-1
1.010678706E0,2.262889296E-1,-4.169949517E-2,1.012118235E-1
1.012680039E0,2.207911313E-1,-4.231036082E-2,9.754662961E-2
1.014681172E0,2.207911313E-1,-4.536468536E-2,9.327057004E-2
1.016682505E0,2.220128626E-1,-5.147333816E-2,9.021624923E-2
1.018683838E0,2.214019895E-1,-5.391679704E-2,8.532932401E-2
1.020685171E0,2.238454521E-1,-6.307977438E-2,7.983153313E-2
1.022686504E0,2.262889296E-1,-6.185804680E-2,7.433374971E-2
1.024687837E0,2.262889296E-1,-6.613410264E-2,6.822510064E-2
1.026689503E0,2.275106460E-1,-6.979929656E-2,6.517077237E-2
1.028690836E0,2.440040112E-1,-7.835140824E-2,5.906211957E-2
1.030692602E0,2.421714216E-1,-7.590795308E-2,5.600779131E-2
1.032693935E0,2.427822948E-1,-8.079487085E-2,4.684481025E-2
1.034695301E0,2.464474738E-1,-8.079487085E-2,3.829269856E-2
1.036696601E0,2.470583320E-1,-8.507092297E-2,3.584923968E-2
1.038697967E0,2.531670034E-1,-8.812525123E-2,2.546452917E-2
1.040699300E0,2.556104660E-1,-1.021751538E-1,1.874501072E-2
1.042700633E0,2.574430406E-1,-1.052294746E-1,1.202549320E-2
1.044701966E0,2.641625702E-1,-1.137815937E-1,1.507981960E-2
1.046703299E0,2.678277493E-1,-1.241663024E-1,5.305975210E-3
1.048704632E0,2.678277493E-1,-1.284423470E-1,5.305975210E-3
1.050705898E0,2.751581371E-1,-1.394379288E-1,-2.024407499E-3
1.052707064E0,2.745472789E-1,-1.486009061E-1,-1.118738670E-2
1.054708397E0,2.733255327E-1,-1.577638835E-1,-1.057652105E-2
1.056709730E0,2.763798833E-1,-1.760898381E-1,-1.729603857E-2
1.058711030E0,2.769907117E-1,-1.913614869E-1,-2.279382572E-2
1.060712363E0,2.788233459E-1,-2.035787851E-1,-2.706988342E-2
1.062713663E0,2.788233459E-1,-2.267916501E-1,-3.317853436E-2
1.064714996E0,2.806559205E-1,-2.377872318E-1,-3.378940374E-2
1.066716362E0,2.800450623E-1,-2.671087682E-1,-5.028276145E-2
1.068717695E0,2.818776667E-1,-2.909325361E-1,-5.578054860E-2
1.070719028E0,2.818776667E-1,-2.927651107E-1,-6.494352967E-2
1.072720394E0,2.861537039E-1,-3.153671324E-1,-7.349564135E-2
1.074721960E0,2.922623456E-1,-3.263626993E-1,-8.876727521E-2
1.076723293E0,2.934840918E-1,-3.275844455E-1,-9.304332733E-2
1.078724659E0,3.032579422E-1,-3.343039453E-1,-1.028171703E-1
1.080726025E0,3.160861135E-1,-3.416343331E-1,-1.077040955E-1
1.082727358E0,3.197513223E-1,-3.446886539E-1,-1.156453416E-1
1.084728691E0,3.307468891E-1,-3.465212286E-1,-1.272517890E-1
1.086729724E0,3.368555307E-1,-3.514081836E-1,-1.303061098E-1
1.088731024E0,3.405207098E-1,-3.672906756E-1,-1.480211914E-1
1.090731957E0,3.411315978E-1,-3.801188469E-1,-1.626819670E-1
1.092733323E0,3.411315978E-1,-3.801188469E-1,-1.687906235E-1
1.094734656E0,3.466293514E-1,-3.850057721E-1,-1.791753173E-1
1.096736056E0,3.484619856E-1,-3.807297051E-1,-1.871165782E-1
1.098737422E0,3.545706272E-1,-3.795079589E-1,-1.877274513E-1
1.100738755E0,3.588466942E-1,-3.911144137E-1,-1.944469661E-1
1.102740088E0,3.716748357E-1,-4.051643014E-1,-1.962795556E-1
1.104741421E0,3.747291863E-1,-4.124946892E-1,-2.011664808E-1
1.106742721E0,3.783943653E-1,-4.283772111E-1,-1.975012869E-1
1.108744121E0,3.765617609E-1,-4.424270988E-1,-2.078859955E-1
1.110746387E0,3.716748357E-1,-4.412053525E-1,-2.091077268E-1
1.112747887E0,3.625118732E-1,-4.515900910E-1,-2.084968537E-1
1.114749253E0,3.612901270E-1,-4.473140240E-1,-2.121620476E-1
1.116750619E0,3.527380228E-1,-4.387618899E-1,-2.139946371E-1
1.118751719E0,3.600684106E-1,-4.412053525E-1,-2.164381146E-1
1.120752785E0,3.582358062E-1,-4.320423901E-1,-2.188815773E-1
1.122754851E0,3.698422611E-1,-4.149381816E-1,-2.164381146E-1
1.124756217E0,3.808378279E-1,-4.008882344E-1,-1.999447495E-1
1.126757583E0,3.893899620E-1,-3.856166303E-1,-1.871165782E-1
1.128758883E0,3.985529244E-1,-3.581276834E-1,-1.700123399E-1
1.130760216E0,4.168788791E-1,-3.349148333E-1,-1.358038932E-1
1.132761516E0,4.144354165E-1,-3.239192367E-1,-1.174779385E-1
1.134763549E0,4.205440581E-1,-3.165888786E-1,-7.593910396E-2
1.136764882E0,4.168788791E-1,-3.147562444E-1,-5.394795164E-2
1.138766215E0,4.095484912E-1,-3.275844455E-1,-4.467868246E-3
1.140767515E0,3.900007904E-1,-3.550733626E-1,4.867740721E-2
1.142768881E0,3.783943653E-1,-3.685123920E-1,7.066855580E-2
1.144770247E0,3.502945602E-1,-4.045534432E-1,1.305333525E-1
1.146771780E0,3.252490759E-1,-4.412053525E-1,1.946741939E-1
1.148773180E0,3.105883300E-1,-4.613639116E-1,2.270500660E-1
1.150779880E0,2.849319875E-1,-5.022919178E-1,2.942452431E-1
1.152781246E0,2.733255327E-1,-5.328351259E-1,3.626621366E-1
1.154782612E0,2.696603537E-1,-5.468850732E-1,4.005357921E-1
1.156783945E0,2.623299658E-1,-5.682653189E-1,4.756722152E-1
1.158785278E0,2.635516822E-1,-5.963650942E-1,5.117132664E-1
1.160786611E0,2.678277493E-1,-6.079715490E-1,5.880714059E-1
1.162787977E0,2.702712119E-1,-6.403474212E-1,6.601535082E-1
1.164790043E0,2.727147043E-1,-6.568408012E-1,7.004706264E-1
1.166791443E0,2.757690251E-1,-6.934927106E-1,7.847700119E-1
1.168792776E0,2.818776667E-1,-7.399184704E-1,8.556303978E-1
1.170793376E0,2.776015997E-1,-7.655748129E-1,8.837302327E-1
1.172794709E0,2.739363909E-1,-8.144440055E-1,9.185494781E-1
1.174796042E0,2.684386373E-1,-8.578155041E-1,9.606992006E-1
1.176797342E0,2.696603537E-1,-8.779739738E-1,9.735274315E-1
1.178798975E0,2.721038163E-1,-8.791957498E-1,9.649752975E-1
1.180800608E0,2.623299658E-1,-8.321591020E-1,9.283233881E-1
1.182801241E0,2.666060328E-1,-7.893985510E-1,9.038887620E-1
1.184802307E0,2.623299658E-1,-6.721124053E-1,8.159241080E-1
1.186803640E0,2.653843164E-1,-5.994194150E-1,7.676657438E-1
1.188805006E0,2.702712119E-1,-4.534226656E-1,6.607643962E-1
1.190806339E0,2.745472789E-1,-3.007063568E-1,5.398130417E-1
1.192807705E0,2.800450623E-1,-2.274025232E-1,4.842243493E-1
1.194808305E0,2.953166664E-1,-9.667737037E-2,3.663273454E-1
1.196809671E0,3.057014048E-1,1.083491743E-2,2.362130433E-1
1.198811704E0,3.124209344E-1,4.504336789E-2,1.702395976E-1
1.200813070E0,3.270817101E-1,8.780393749E-2,6.517077237E-2
1.202814370E0,3.380772769E-1,1.049081683E-1,-3.256766871E-2
1.204815703E0,3.405207098E-1,1.061298996E-1,-7.593910396E-2
1.206817136E0,3.466293514E-1,1.055190265E-1,-1.541298479E-1
1.208818469E0,3.429641724E-1,1.122385487E-1,-1.901708990E-1
1.212815468E0,3.386881351E-1,1.122385487E-1,-2.915745378E-1
1.214816768E0,3.411315978E-1,1.122385487E-1,-3.062352836E-1
1.216818068E0,3.490728438E-1,1.042973027E-1,-3.477741480E-1
1.218823034E0,3.509054184E-1,1.042973027E-1,-3.764848113E-1
1.220824134E0,3.582358062E-1,9.941037744E-2,-3.887021244E-1
1.222825467E0,3.716748357E-1,8.413875103E-2,-4.058063328E-1
1.224826133E0,3.820595741E-1,7.314317673E-2,-4.070280790E-1
1.226827433E0,3.893899620E-1,6.581278890E-2,-4.027520120E-1
1.228828766E0,3.961094618E-1,5.726067722E-2,-3.893129528E-1
1.230830166E0,4.064941704E-1,4.993029311E-2,-3.715978563E-1
1.232831499E0,4.113810956E-1,5.726067722E-2,-3.593805730E-1
1.234832832E0,4.248201251E-1,7.192143798E-2,-3.276155591E-1
1.236834232E0,4.260418713E-1,8.719307184E-2,-3.141765296E-1
1.238835565E0,4.242092669E-1,1.299536377E-1,-2.763029039E-1
1.240836898E0,4.217658043E-1,1.788228601E-1,-2.439270467E-1
1.242838064E0,4.248201251E-1,2.118095905E-1,-2.231576294E-1
1.244839697E0,4.309287667E-1,2.594570518E-1,-2.011664808E-1
1.246840997E0,4.419243336E-1,3.113806248E-1,-1.797861904E-1
1.248842363E0,4.504764676E-1,3.364260793E-1,-1.712340862E-1
1.250843696E0,4.724676311E-1,3.840735853E-1,-1.541298479E-1
1.252851562E0,4.871283770E-1,4.390514493E-1,-1.510755271E-1
1.254852928E0,4.993456602E-1,4.610426128E-1,-1.474103332E-1
1.256854228E0,5.176716447E-1,4.958619177E-1,-1.535189748E-1
1.258854828E0,5.311106443E-1,5.160204172E-1,-1.577950418E-1
1.260856161E0,5.500474572E-1,5.551158190E-1,-1.706232131E-1
1.262862427E0,5.610430837E-1,5.874916911E-1,-1.785644740E-1
1.264863727E0,5.683735013E-1,6.027633548E-1,-1.816187948E-1
1.266865060E0,5.799798965E-1,6.351392269E-1,-1.968904287E-1
1.268866360E0,5.830342174E-1,6.681259274E-1,-2.017773390E-1
1.270867693E0,5.854776502E-1,6.888953447E-1,-2.054425329E-1
1.272869293E0,5.824233294E-1,7.322667837E-1,-2.152163833E-1
1.274870626E0,5.854776502E-1,7.817468047E-1,-2.201033086E-1
1.276871992E0,5.836451054E-1,8.043488860E-1,-2.243793607E-1
1.280871258E0,5.689843297E-1,9.155263901E-1,-2.317097336E-1
1.282872591E0,5.653191805E-1,9.436261654E-1,-2.402618527E-1
1.284873924E0,5.537127256E-1,9.998257160E-1,-2.463704944E-1
1.286875290E0,5.482149124E-1,1.026092887E0,-2.506465614E-1
1.288876656E0,5.341649652E-1,1.078627348E0,-2.567552328E-1
1.290877989E0,5.225585699E-1,1.121998787E0,-2.677507997E-1
1.292879355E0,5.115630031E-1,1.142768145E0,-2.683616579E-1
1.294880721E0,5.060651898E-1,1.166591883E0,-2.720268667E-1
1.296882054E0,4.938479066E-1,1.183085322E0,-2.738594413E-1
1.298883354E0,4.895718396E-1,1.190415621E0,-2.720268667E-1
1.300884720E0,4.779653847E-1,1.198356986E0,-2.610312700E-1
1.302886220E0,4.663589597E-1,1.197746038E0,-2.494248301E-1
1.304887553E0,4.657481015E-1,1.196524382E0,-2.433161736E-1
1.306888853E0,4.578068554E-1,1.197746038E0,-2.231576294E-1
1.308890186E0,4.535307884E-1,1.190415621E0,-2.139946371E-1
1.310891552E0,4.462004006E-1,1.189193964E0,-1.950578243E-1
1.314887718E0,4.211549461E-1,1.178809285E0,-1.645145565E-1
1.316889051E0,4.132136703E-1,1.184306979E0,-1.351930201E-1
1.318890451E0,3.985529244E-1,1.187361360E0,-1.083149537E-1
1.320891784E0,3.985529244E-1,1.191637397E0,-9.731938690E-2
1.324890750E0,3.863356113E-1,1.222180605E0,-3.562199324E-2
1.326895116E0,3.863356113E-1,1.231954575E0,-2.218296006E-2
1.328897116E0,3.930551410E-1,1.255778313E0,5.916840397E-3
1.330898482E0,3.973311782E-1,1.263719440E0,2.179933712E-2
1.332899815E0,4.028289914E-1,1.268606424E0,4.256875440E-2
1.334901148E0,4.150463045E-1,1.282045484E0,7.372288406E-2
1.336902514E0,4.229875207E-1,1.283267260E0,8.044239879E-2
1.338903880E0,4.376482964E-1,1.257610798E0,1.103747934E-1
1.340905246E0,4.571959972E-1,1.230732799E0,1.244246960E-1
1.342906579E0,4.620829225E-1,1.212406874E0,1.250355542E-1
1.344907645E0,4.865175188E-1,1.175754905E0,1.348094046E-1
1.346908978E0,5.164498687E-1,1.115890145E0,1.537462324E-1
1.348910311E0,5.256128907E-1,1.084735990E0,1.574114263E-1
1.350911644E0,5.402736664E-1,1.041364670E0,1.396963298E-1
1.352912977E0,5.531017780E-1,9.967713952E-1,1.323659569E-1
1.354914277E0,5.573778749E-1,9.680607319E-1,1.287007630E-1
1.356915577E0,5.726495385E-1,9.216350317E-1,1.305333525E-1
1.358916977E0,5.824233294E-1,8.892591596E-1,1.219812408E-1
1.360925177E0,5.818125010E-1,8.519963622E-1,1.036552787E-1
1.362926510E0,5.873103142E-1,8.061814308E-1,8.594018221E-2
1.364927876E0,5.946406722E-1,7.805251479E-1,7.189028710E-2
1.366929276E0,6.074687839E-1,7.157734632E-1,5.600779131E-2
1.368930576E0,5.854776502E-1,7.078321576E-1,3.279491141E-2
1.370931942E0,5.757038593E-1,7.047778368E-1,1.935587637E-2
1.372933275E0,5.720386505E-1,6.797323823E-1,-5.078733433E-3
1.374934641E0,5.610430837E-1,6.375826597E-1,-3.745459020E-2
1.376936041E0,5.567670465E-1,6.119263172E-1,-5.394795164E-2
1.378937374E0,5.543235540E-1,5.581701398E-1,-7.899343222E-2
1.380938740E0,5.506584048E-1,5.410659909E-1,-8.815640956E-2
1.382938973E0,5.488257408E-1,4.940293133E-1,-1.113692820E-1
1.384940306E0,5.482149124E-1,4.439383745E-1,-1.370256245E-1
1.388939372E0,5.353867412E-1,3.785758018E-1,-1.834513843E-1
1.390940672E0,5.280563235E-1,3.455890715E-1,-2.048316598E-1
1.392942005E0,5.256128907E-1,3.248196542E-1,-2.060534060E-1
1.394943371E0,5.427170992E-1,2.509049475E-1,-2.243793607E-1
1.396944704E0,5.182825327E-1,2.447963059E-1,-2.286554128E-1
1.398946037E0,5.097303987E-1,2.423528433E-1,-2.335423231E-1
1.400947603E0,4.926261604E-1,2.484614998E-1,-2.329314798E-1
1.402948969E0,4.889609814E-1,2.325789928E-1,-2.396509796E-1
1.404950569E0,4.889609814E-1,2.228051573E-1,-2.463704944E-1
1.406951935E0,4.822414517E-1,2.111987174E-1,-2.518682778E-1
1.408953268E0,4.822414517E-1,2.008140087E-1,-2.549226284E-1
1.410954601E0,4.779653847E-1,1.947053522E-1,-2.659181952E-1
1.412955967E0,4.785762727E-1,1.769902706E-1,-2.756920457E-1
1.414957333E0,4.871283770E-1,1.733250767E-1,-2.805789411E-1
1.416958699E0,4.877392650E-1,1.476687342E-1,-2.879093289E-1
1.418959999E0,4.828523397E-1,1.195689291E-1,-2.848550081E-1
1.422955798E0,4.840740561E-1,7.008884102E-2,-2.915745378E-1
1.424956898E0,4.907935858E-1,-2.604118548E-3,-2.927962542E-1
1.426958231E0,4.999565482E-1,-4.047776386E-2,-2.897419333E-1
1.428959631E0,4.834631979E-1,-7.712967694E-2,-2.860767543E-1
1.430960997E0,4.700241387E-1,-9.850996733E-2,-2.848550081E-1
1.432962897E0,4.480330348E-1,-1.357727349E-1,-2.750811875E-1
1.434964230E0,4.345939755E-1,-1.846419722E-1,-2.646964788E-1
1.436965530E0,4.229875207E-1,-2.035787851E-1,-2.640855908E-1
1.438966830E0,4.077159166E-1,-2.542805970E-1,-2.567552328E-1
1.440968196E0,3.893899620E-1,-2.897107899E-1,-2.433161736E-1
1.442969262E0,3.814486861E-1,-3.110910654E-1,-2.359858006E-1
1.444970595E0,3.716748357E-1,-3.452995420E-1,-2.256010920E-1
1.446971928E0,3.545706272E-1,-3.654580712E-1,-2.109403163E-1
1.448973261E0,3.551814854E-1,-3.733993173E-1,-2.029990703E-1
1.450974627E0,3.447967768E-1,-3.880600929E-1,-1.834513843E-1
1.452976027E0,3.417424560E-1,-3.892818391E-1,-1.608493626E-1
1.454977393E0,3.417424560E-1,-3.874492049E-1,-1.504646540E-1
1.456978726E0,3.411315978E-1,-3.898926675E-1,-1.272517890E-1
1.458980092E0,3.441859186E-1,-3.880600929E-1,-1.064823642E-1
1.460980958E0,3.362446725E-1,-3.715667129E-1,-7.471737266E-2
1.462982291E0,3.350229561E-1,-3.477429748E-1,-4.234151542E-2
1.464983624E0,3.325794637E-1,-3.385800123E-1,-2.584815212E-2
1.466984657E0,3.344120681E-1,-3.147562444E-1,-3.857003292E-3
1.468985990E0,3.460185230E-1,-2.884890437E-1,3.096231632E-2
1.470987356E0,3.484619856E-1,-2.781043351E-1,4.317962006E-2
1.472988656E0,3.551814854E-1,-2.561132014E-1,6.333817542E-2
1.474989989E0,3.551814854E-1,-2.237373292E-1,8.349672705E-2
1.476991355E0,3.588466942E-1,-2.133526355E-1,8.777277917E-2
1.478992688E0,3.661770523E-1,-1.834202260E-1,1.140399873E-1
1.480996221E0,3.686205149E-1,-1.571530253E-1,1.195377707E-1
1.482997587E0,3.728965819E-1,-1.424922645E-1,1.439723819E-1
1.484999153E0,3.820595741E-1,-1.088946685E-1,1.506919116E-1
1.487000519E0,3.796160817E-1,-9.606649727E-2,1.629092097E-1
1.489001852E0,3.832812905E-1,-6.369064003E-2,1.720721871E-1
1.491003118E0,3.906116784E-1,-3.436911106E-2,1.800134480E-1
1.493003884E0,3.924442828E-1,-1.848661341E-2,1.842894852E-1
1.495005217E0,3.930551410E-1,1.755443402E-2,1.934524626E-1
1.497006583E0,3.796160817E-1,3.954558074E-2,1.928416044E-1
1.499007983E0,3.692313731E-1,6.031500176E-2,1.995611340E-1
1.501009316E0,3.484619856E-1,8.658220619E-2,1.995611340E-1
1.503010882E0,3.423533440E-1,9.391258657E-2,2.056697756E-1
1.505012215E0,3.283033967E-1,1.214015260E-1,2.160544842E-1
1.507013581E0,3.093666136E-1,1.427818090E-1,2.209414095E-1
1.509014914E0,2.971493006E-1,1.482796073E-1,2.239957303E-1
1.511016280E0,2.751581371E-1,1.617186219E-1,2.368239015E-1
1.513018013E0,2.623299658E-1,1.733250767E-1,2.465977520E-1
1.515019313E0,2.549995780E-1,1.727142036E-1,2.508738041E-1
1.517020679E0,2.372844964E-1,1.776011288E-1,2.575933337E-1
1.519021745E0,2.189585418E-1,1.794337332E-1,2.606476545E-1
1.521023345E0,2.122390121E-1,1.788228601E-1,2.673671544E-1
1.523027145E0,2.024651766E-1,1.757685393E-1,2.728649676E-1
1.525028511E0,1.926913261E-1,1.690490097E-1,2.765301466E-1
1.527030144E0,1.920804679E-1,1.696598828E-1,2.795844674E-1
1.529031510E0,1.816957593E-1,1.617186219E-1,2.875257134E-1
1.531032843E0,1.816957593E-1,1.580534428E-1,2.887474298E-1
1.533034209E0,1.731436402E-1,1.617186219E-1,2.979104221E-1
1.535035575E0,1.719219238E-1,1.543882489E-1,3.015756309E-1
1.537037241E0,1.664241403E-1,1.568317115E-1,3.015756309E-1
1.539038607E0,1.584828794E-1,1.531665176E-1,3.040190637E-1
1.543039140E0,1.658132672E-1,1.470578611E-1,3.076842725E-1
1.545040473E0,1.700893193E-1,1.507230550E-1,3.076842725E-1
1.547041806E0,1.731436402E-1,1.482796073E-1,3.027973771E-1
1.549043239E0,1.798631549E-1,1.464470029E-1,3.003538847E-1
1.551044605E0,1.975782663E-1,1.446144134E-1,2.899691761E-1
1.553047105E0,2.030760348E-1,1.452252716E-1,2.850822508E-1
1.555048471E0,2.305649668E-1,1.501121968E-1,2.673671544E-1
1.557049804E0,2.543887198E-1,1.464470029E-1,2.465977520E-1
1.559051137E0,2.702712119E-1,1.513339281E-1,2.380456328E-1
1.561052470E0,2.977601588E-1,1.476687342E-1,2.160544842E-1
1.563053836E0,3.209730089E-1,1.409492195E-1,1.971176565E-1
1.565054936E0,3.313577473E-1,1.403383464E-1,1.910089999E-1
1.567056236E0,3.557923436E-1,1.281210482E-1,1.653526723E-1
1.569063436E0,3.765617609E-1,1.152928770E-1,1.366419941E-1
1.571064769E0,3.802269697E-1,1.104059517E-1,1.244246960E-1
1.573065669E0,4.022181034E-1,9.513432533E-2,1.030444205E-1
1.575067069E0,4.095484912E-1,7.375403494E-2,9.632489830E-2
1.577070902E0,4.174897373E-1,6.214759871E-2,7.433374971E-2
1.579072502E0,4.229875207E-1,4.198904335E-2,5.784038454E-2
1.581073835E0,4.235983789E-1,3.526952863E-2,5.295346305E-2
1.585074068E0,4.242092669E-1,1.671938226E-3,3.157318011E-2
1.587075434E0,4.205440581E-1,-5.658444948E-3,3.035145067E-2
1.589076734E0,4.199331999E-1,-2.154094167E-2,2.302106842E-2
1.591078067E0,4.077159166E-1,-3.314737976E-2,1.996674202E-2
1.593079433E0,4.101593494E-1,-3.681257367E-2,1.874501072E-2
1.595080733E0,4.003855288E-1,-5.513853207E-2,1.996674202E-2
1.597081733E0,3.906116784E-1,-6.552323699E-2,2.118847333E-2
1.599083066E0,3.900007904E-1,-7.346448302E-2,1.813414507E-2
1.601084366E0,3.753400147E-1,-8.446005732E-2,2.057760581E-2
1.603085699E0,3.637336195E-1,-8.934698254E-2,2.241020277E-2
1.605087032E0,3.484619856E-1,-9.606649727E-2,2.607539296E-2
1.607088398E0,3.331903517E-1,-1.015642881E-1,3.340577707E-2
1.609089631E0,3.234165013E-1,-1.040077507E-1,3.829269856E-2
1.611090997E0,3.087557256E-1,-1.070620716E-1,4.134702682E-2
1.613091197E0,2.934840918E-1,-1.156141907E-1,4.989913851E-2
1.615092530E0,2.892080247E-1,-1.247771680E-1,5.417519435E-2
1.617093863E0,2.745472789E-1,-1.363836080E-1,6.333817542E-2
1.619095163E0,2.653843164E-1,-1.473791748E-1,6.822510064E-2
1.621096496E0,2.580539286E-1,-1.528769732E-1,7.372288406E-2
1.623097862E0,2.476692051E-1,-1.589856297E-1,8.594018221E-2
1.625099228E0,2.446148843E-1,-1.608182192E-1,8.960537612E-2
1.627100594E0,2.311758399E-1,-1.791441739E-1,9.754662961E-2
1.631097094E0,2.195694000E-1,-2.023570538E-1,1.097639278E-1
1.633098460E0,2.159042060E-1,-2.164069563E-1,1.201486439E-1
1.635099793E0,2.091846913E-1,-2.353437841E-1,1.268681586E-1
1.639099992E0,2.091846913E-1,-2.701630890E-1,1.366419941E-1
1.641101325E0,2.110172808E-1,-2.897107899E-1,1.409180611E-1
1.643102658E0,2.134607583E-1,-2.958194315E-1,1.458049715E-1
1.645104024E0,2.128498852E-1,-3.245300949E-1,1.519136280E-1
1.647105324E0,2.171259522E-1,-3.428560495E-1,1.543571055E-1
1.649106690E0,2.220128626E-1,-3.532407880E-1,1.568005532E-1
1.651108023E0,2.238454521E-1,-3.648472130E-1,1.629092097E-1
1.653109356E0,2.268997729E-1,-3.782862425E-1,1.604657471E-1
1.655110722E0,2.323975712E-1,-3.917252719E-1,1.653526723E-1
1.657112088E0,2.330084443E-1,-3.984448016E-1,1.641309410E-1
1.659113454E0,2.330084443E-1,-4.033317268E-1,1.635200828E-1
1.661114820E0,2.440040112E-1,-4.094403684E-1,1.598548889E-1
1.663116653E0,2.427822948E-1,-4.216576815E-1,1.647417992E-1
1.665118719E0,2.488909364E-1,-4.283772111E-1,1.586331427E-1
1.667120019E0,2.470583320E-1,-4.314315319E-1,1.506919116E-1
1.669121385E0,2.513343990E-1,-4.344858527E-1,1.439723819E-1
1.671122685E0,2.507235408E-1,-4.393727779E-1,1.384745985E-1
1.673124018E0,2.562213242E-1,-4.503683448E-1,1.268681586E-1
1.675125384E0,2.537778616E-1,-4.503683448E-1,1.195377707E-1
1.677126750E0,2.525561154E-1,-4.552552700E-1,1.060987413E-1
1.679128116E0,2.556104660E-1,-4.674725533E-1,9.021624923E-2
1.681129482E0,2.495017946E-1,-4.723595083E-1,8.288586140E-2
1.683130782E0,2.556104660E-1,-4.955723584E-1,6.333817542E-2
1.685132348E0,2.568321824E-1,-5.218396187E-1,4.684481025E-2
1.687133714E0,2.543887198E-1,-5.365003943E-1,3.523837402E-2
1.689135347E0,2.537778616E-1,-5.676544905E-1,1.569068432E-2
1.691136713E0,2.543887198E-1,-5.981977582E-1,-9.965655394E-3
1.693138079E0,2.507235408E-1,-6.153019667E-1,-1.057652105E-2
1.695139379E0,2.482800782E-1,-6.470669508E-1,-3.623285890E-2
1.697140712E0,2.458366156E-1,-6.757776737E-1,-4.722843692E-2
1.699142045E0,2.488909364E-1,-6.989904642E-1,-6.799785793E-2
1.701143378E0,2.452257425E-1,-7.350315452E-1,-8.998900652E-2
1.703144711E0,2.458366156E-1,-7.533574700E-1,-9.793025255E-2
1.705146044E0,2.452257425E-1,-7.887876630E-1,-1.193105280E-1
1.707153277E0,2.452257425E-1,-8.199418187E-1,-1.309169829E-1
1.709154643E0,2.470583320E-1,-8.401003480E-1,-1.419125497E-1
1.711156009E0,2.562213242E-1,-8.779739738E-1,-1.602385044E-1
1.713157342E0,2.574430406E-1,-9.146259427E-1,-1.755101383E-1
1.715158675E0,2.635516822E-1,-9.274541140E-1,-1.822296530E-1
1.717161141E0,2.684386373E-1,-9.543321729E-1,-1.968904287E-1
1.719162174E0,2.751581371E-1,-9.732689857E-1,-2.103294581E-1
1.721163507E0,2.818776667E-1,-9.781559706E-1,-2.170489877E-1
1.723164340E0,3.057014048E-1,-9.854863286E-1,-2.219358981E-1
1.725164940E0,3.136426508E-1,-9.891514778E-1,-2.262119651E-1
1.727166340E0,3.252490759E-1,-1.006866574E0,-2.402618527E-1
1.729167673E0,3.392989933E-1,-1.014196992E0,-2.445379049E-1
1.731168839E0,3.515163064E-1,-1.025192499E0,-2.420944571E-1
1.733170205E0,3.612901270E-1,-1.031912088E0,-2.396509796E-1
1.735171505E0,3.783943653E-1,-1.041075110E0,-2.317097336E-1
1.737172838E0,3.814486861E-1,-1.040464163E0,-2.298771292E-1
1.739174204E0,3.924442828E-1,-1.041685939E0,-2.188815773E-1
1.741175337E0,4.046615660E-1,-1.038631558E0,-2.054425329E-1
1.743176703E0,4.126028121E-1,-1.034355521E0,-1.956686825E-1
1.745178769E0,4.162679911E-1,-1.027635932E0,-1.803970635E-1
1.747180069E0,4.211549461E-1,-1.016029596E0,-1.669580191E-1
1.749181402E0,4.217658043E-1,-9.970927238E-1,-1.596276462E-1
1.751182768E0,4.315396547E-1,-9.781559706E-1,-1.492429376E-1
1.753184101E0,4.297070503E-1,-9.622734189E-1,-1.467994750E-1
1.755185434E0,4.364265800E-1,-9.421148896E-1,-1.400799602E-1
1.757186800E0,4.394809008E-1,-9.250106215E-1,-1.254191846E-1
1.759188133E0,4.443678260E-1,-9.189019799E-1,-1.205322668E-1
1.761189499E0,4.486438632E-1,-9.036303759E-1,-1.070932299E-1
1.763190865E0,4.565851092E-1,-8.859152794E-1,-9.670852125E-2
1.765191931E0,4.565851092E-1,-8.785849214E-1,-8.815640956E-2
1.769188730E0,4.419243336E-1,-8.419330120E-1,-5.700227991E-2
1.771190063E0,4.352048337E-1,-8.303265572E-1,-4.295237735E-2
1.773191396E0,4.156571329E-1,-8.065028191E-1,-2.218296006E-2
1.775192729E0,4.022181034E-1,-7.918420434E-1,-9.965655394E-3
1.777192929E0,3.753400147E-1,-7.729052305E-1,1.569068432E-2
1.779194562E0,3.411315978E-1,-7.386966944E-1,3.951442987E-2
1.781195928E0,3.221947551E-1,-7.203707695E-1,5.234259740E-2
1.783197294E0,2.885971665E-1,-6.989904642E-1,6.761422753E-2
1.785198694E0,2.611082494E-1,-6.715015769E-1,8.899451792E-2
1.787200027E0,2.531670034E-1,-6.580625176E-1,9.693576396E-2
1.789201460E0,2.415605485E-1,-6.311844587E-1,1.238138378E-1
1.791202993E0,2.323975712E-1,-6.067498326E-1,1.458049715E-1
1.793204326E0,2.305649668E-1,-5.926999450E-1,1.635200828E-1
1.795205726E0,2.232345939E-1,-5.627675653E-1,2.001719773E-1
1.797207626E0,2.177367955E-1,-5.450524092E-1,2.239957303E-1
1.799208959E0,2.183476686E-1,-5.230612755E-1,2.765301466E-1
1.801210459E0,2.171259522E-1,-5.102331042E-1,3.327297270E-1
1.803211825E0,2.201802731E-1,-5.047353506E-1,3.638838828E-1
1.805212425E0,2.391171008E-1,-4.998484254E-1,4.298573434E-1
1.807213791E0,2.537778616E-1,-5.047353506E-1,4.964416325E-1
1.809215157E0,2.653843164E-1,-5.059570670E-1,5.379804969E-1
1.811216490E0,2.769907117E-1,-5.114548802E-1,6.118951440E-1
1.813217823E0,2.800450623E-1,-5.047353506E-1,6.851989627E-1
1.815219223E0,2.788233459E-1,-5.035136342E-1,7.187965512E-1
1.817220556E0,2.751581371E-1,-4.955723584E-1,7.640005946E-1
1.819221856E0,2.617191076E-1,-5.029027462E-1,8.037068248E-1
1.821223189E0,2.562213242E-1,-5.053462386E-1,8.153132796E-1
1.823224522E0,2.409496903E-1,-4.644182324E-1,8.165350556E-1
1.825226122E0,2.366736233E-1,-4.259337485E-1,8.104264140E-1
1.827227488E0,2.513343990E-1,-3.385800123E-1,7.792721987E-1
1.829228821E0,2.727147043E-1,-1.931940764E-1,7.383443117E-1
1.831230287E0,2.818776667E-1,-1.040077507E-1,7.059683800E-1
1.833231653E0,3.050905466E-1,5.603894591E-2,6.265559196E-1
1.835232986E0,3.325794637E-1,1.672164202E-1,5.245414376E-1
1.837234319E0,3.484619856E-1,1.922619045E-1,4.750613272E-1
1.839235652E0,3.680096567E-1,1.702707559E-1,3.583860695E-1
1.841237685E0,3.985529244E-1,9.757778049E-2,2.288826555E-1
1.843239018E0,4.138245583E-1,5.726067722E-2,1.592440158E-1
1.845240318E0,4.382591546E-1,-2.154094167E-2,2.668625861E-2
1.847241618E0,4.626937509E-1,-5.147333816E-2,-2.768074721E-2
1.849242884E0,5.182825327E-1,-8.812525123E-2,-1.272517890E-1
1.851244217E0,5.744821429E-1,-1.064512134E-1,-2.225467712E-1
1.853245550E0,6.038036346E-1,-1.101163998E-1,-2.653073370E-1
1.855246883E0,6.661118865E-1,-1.180576459E-1,-3.483850062E-1
1.857247616E0,7.265875936E-1,-1.131707281E-1,-4.082497954E-1
1.859248916E0,7.528547645E-1,-1.131707281E-1,-4.320735335E-1
1.861250282E0,7.943935990E-1,-9.301217645E-2,-4.693363309E-1
1.863251615E0,8.163847923E-1,-5.574939400E-2,-4.876622856E-1
1.865252981E0,8.218824863E-1,-3.681257367E-2,-4.925491810E-1
1.867254314E0,8.243259788E-1,2.244135737E-2,-4.943818152E-1
1.869255647E0,8.200499415E-1,5.787153915E-2,-4.992687106E-1
1.871256980E0,8.047783375E-1,1.342296898E-1,-4.943818152E-1
1.873258313E0,7.992805243E-1,2.221942842E-1,-4.943818152E-1
1.875259613E0,7.962262034E-1,2.588461936E-1,-4.882731438E-1
1.877260913E0,7.919501066E-1,3.425347507E-1,-4.913274646E-1
1.879262313E0,7.931718826E-1,4.140059948E-1,-4.937709272E-1
1.881263679E0,7.980587482E-1,4.384405911E-1,-4.937709272E-1
1.883265012E0,8.041673899E-1,4.921967089E-1,-5.035447478E-1
1.885266145E0,8.072217703E-1,5.276268721E-1,-5.090425611E-1
1.887267478E0,8.060000539E-1,5.514506698E-1,-5.163729191E-1
1.889268811E0,7.974479198E-1,5.813830495E-1,-5.322554111E-1
1.891270044E0,7.907283902E-1,6.137589216E-1,-5.450836420E-1
1.893271344E0,7.840089202E-1,6.326957345E-1,-5.542466044E-1
1.895272944E0,7.711807489E-1,6.632390022E-1,-5.621878505E-1
1.897274310E0,7.559091449E-1,6.791214943E-1,-5.737942457E-1
1.899275676E0,7.326962352E-1,7.169951200E-1,-5.902876854E-1
1.901276309E0,7.076507807E-1,7.542579174E-1,-6.006723642E-1
1.903277642E0,6.923791170E-1,7.719730139E-1,-6.067810059E-1
1.905279008E0,6.630575657E-1,8.122900724E-1,-6.226634979E-1
1.907280374E0,6.404555440E-1,8.464986086E-1,-6.342699528E-1
1.909281707E0,6.239622235E-1,8.642137051E-1,-6.385460496E-1
1.911283040E0,6.001384258E-1,8.880374432E-1,-6.544284821E-1
1.913284373E0,5.781472921E-1,9.020872712E-1,-6.599262953E-1
1.915285706E0,5.677625537E-1,9.075850844E-1,-6.532067657E-1
1.917287106E0,5.372193456E-1,9.124720693E-1,-6.550393701E-1
1.919288472E0,5.268346071E-1,9.063633680E-1,-6.483198404E-1
1.921289805E0,5.060651898E-1,8.953678012E-1,-6.306047440E-1
1.923290871E0,4.852957726E-1,8.794853091E-1,-6.110570431E-1
1.925292237E0,4.761328101E-1,8.691005707E-1,-6.018940806E-1
1.927297637E0,4.504764676E-1,8.568832874E-1,-5.756269097E-1
1.929298737E0,4.382591546E-1,8.538289666E-1,-5.542466044E-1
1.931299970E0,4.278744459E-1,8.544397950E-1,-5.365315080E-1
1.933301336E0,4.046615660E-1,8.727657795E-1,-5.059882402E-1
1.935302702E0,3.875573277E-1,8.923134804E-1,-4.723906517E-1
1.937304102E0,3.796160817E-1,9.051416516E-1,-4.571190178E-1
1.939305402E0,3.600684106E-1,9.283545017E-1,-4.253540337E-1
1.941306735E0,3.344120681E-1,9.497348070E-1,-3.874803782E-1
1.943308101E0,3.240273595E-1,9.613412619E-1,-3.715978563E-1
1.945309667E0,2.940949798E-1,9.729477167E-1,-3.318916261E-1
1.947311000E0,2.794342041E-1,9.839432240E-1,-3.123439550E-1
1.949312366E0,2.525561154E-1,1.002880096E0,-2.781355083E-1
1.951314666E0,2.177367955E-1,1.021206021E0,-2.457596362E-1
1.953315999E0,2.012434453E-1,1.022427678E0,-2.372075170E-1
1.955317099E0,1.566502899E-1,1.037088513E0,-2.127729207E-1
1.957318432E0,1.181657687E-1,1.056636214E0,-1.834513843E-1
1.959319765E0,1.022832766E-1,1.060912251E0,-1.761209965E-1
1.961321131E0,6.502050161E-2,1.074962139E0,-1.547407210E-1
1.963322464E0,3.325550631E-2,1.082292557E0,-1.437451541E-1
1.965323630E0,2.287079394E-2,1.076183915E0,-1.437451541E-1
1.967324996E0,-2.174680121E-3,1.079238296E0,-1.339713037E-1
1.969326329E0,-5.229006521E-3,1.073129654E0,-1.272517890E-1
1.971327695E0,-5.229006521E-3,1.054192781E0,-1.241974533E-1
1.973329061E0,-1.133765932E-2,1.029758215E0,-1.327495724E-1
1.975330361E0,-8.283332922E-3,1.018762589E0,-1.345821619E-1
1.977331694E0,-3.396410728E-3,9.973822832E-1,-1.461886019E-1
1.979333060E0,5.766567774E-3,9.668390751E-1,-1.510755271E-1
1.981334426E0,6.988298614E-3,9.601194859E-1,-1.590167731E-1
1.983336026E0,1.492954604E-2,9.430152774E-1,-1.748992801E-1
1.985337326E0,2.470339090E-2,9.198024273E-1,-1.901708990E-1
1.987340592E0,3.142290935E-2,9.136937261E-1,-2.005556226E-1
1.989342158E0,3.508809954E-2,9.094176888E-1,-2.158272415E-1
1.991343624E0,4.364021122E-2,8.923134804E-1,-2.298771292E-1
1.993344957E0,5.219232664E-2,8.752092123E-1,-2.439270467E-1
1.995346323E0,6.502050161E-2,8.367247581E-1,-2.579769492E-1
1.997347656E0,6.807482243E-2,8.147335649E-1,-2.646964788E-1
1.999349022E0,8.701164275E-2,7.756381631E-1,-2.787463665E-1
2.001350388E0,9.922894835E-2,7.395971417E-1,-3.001266420E-1
2.003351688E0,1.047267392E-1,7.163842916E-1,-3.056244254E-1
2.005353021E0,1.090027913E-1,6.754562855E-1,-3.160091639E-1
2.007354354E0,1.145005822E-1,6.375826597E-1,-3.184525967E-1
2.009355687E0,1.187766418E-1,6.174241304E-1,-3.233395517E-1
2.011356020E0,1.218309626E-1,5.673331022E-1,-3.318916261E-1
2.013357420E0,1.169440448E-1,5.319029689E-1,-3.367785513E-1
2.015358753E0,1.248852909E-1,5.025814772E-1,-3.367785513E-1
2.017360086E0,1.261070222E-1,4.592100084E-1,-3.343351185E-1
2.019361419E0,1.285504699E-1,4.378297031E-1,-3.312807679E-1
2.021362719E0,1.303830743E-1,3.907930851E-1,-3.306699097E-1
2.023364085E0,1.273287535E-1,3.419238925E-1,-3.270047307E-1
2.025365585E0,1.279396117E-1,3.150458038E-1,-3.263938725E-1
2.027366918E0,1.224418357E-1,2.747286856E-1,-3.141765296E-1
2.029368218E0,1.181657687E-1,2.093661129E-1,-3.153982759E-1
2.031369584E0,1.120571196E-1,1.806554496E-1,-3.092896044E-1
2.033370884E0,9.617462009E-2,1.152928770E-1,-3.080678880E-1
2.035372250E0,8.456818759E-2,4.931942746E-2,-2.934071422E-1
2.037373650E0,7.784866542E-2,1.144578215E-2,-2.860767543E-1
2.039374983E0,6.196616963E-2,-5.697112530E-2,-2.726377249E-1
2.041376283E0,5.891184136E-2,-8.568179607E-2,-2.555334866E-1
2.043377616E0,7.418347150E-2,-1.785333157E-1,-2.329314798E-1
2.045378949E0,7.601606846E-2,-2.463393509E-1,-2.164381146E-1
2.049375648E0,4.302934557E-2,-3.257518411E-1,-1.962795556E-1
2.051376948E0,3.508809954E-2,-4.100512266E-1,-1.871165782E-1
2.053378281E0,3.081204183E-2,-4.491465986E-1,-1.773427278E-1
2.055379614E0,3.875329345E-2,-5.426090360E-1,-1.706232131E-1
2.057380947E0,3.081204183E-2,-5.829260945E-1,-1.608493626E-1
2.059382280E0,2.164906450E-2,-5.878130198E-1,-1.584059149E-1
2.061383613E0,7.599163335E-3,-6.177453995E-1,-1.614602357E-1
2.063384979E0,8.796459297E-4,-6.379039884E-1,-1.632928252E-1
2.065386345E0,-2.785545541E-3,-6.452343464E-1,-1.620711088E-1
2.067387711E0,-7.061602082E-3,-6.397365928E-1,-1.657363027E-1
2.069389011E0,-1.805717684E-2,-6.305736303E-1,-1.669580191E-1
2.071390411E0,-1.866804063E-2,-6.140801907E-1,-1.675688922E-1
2.073391711E0,-1.683544554E-2,-5.945325494E-1,-1.669580191E-1
2.075393077E0,-9.505063295E-3,-5.896456242E-1,-1.651254296E-1
2.077394410E0,-1.927890815E-2,-5.383329391E-1,-1.657363027E-1
2.079396476E0,-2.538755909E-2,-4.919071794E-1,-1.602385044E-1
2.081397842E0,-2.905275114E-2,-4.766355455E-1,-1.571841687E-1
2.083399208E0,-2.477669530E-2,-4.442597032E-1,-1.461886019E-1
2.085400541E0,-1.744631119E-2,-4.234902561E-1,-1.431342810E-1
2.087401841E0,-1.255938876E-2,-4.179925025E-1,-1.419125497E-1
2.089402941E0,-2.785545541E-3,-4.033317268E-1,-1.327495724E-1
2.091404274E0,3.933972213E-3,-3.905035257E-1,-1.241974533E-1
2.093405640E0,2.348166145E-2,-3.709558845E-1,-1.089258268E-1
2.095407006E0,4.425108060E-2,-3.416343331E-1,-9.304332733E-2
2.097408306E0,4.974886775E-2,-3.233083785E-1,-7.960429043E-2
2.099409606E0,6.807482243E-2,-2.781043351E-1,-6.372179836E-2
2.101411006E0,8.090299368E-2,-2.335111797E-1,-4.845016450E-2
2.103412372E0,8.762251586E-2,-2.078548372E-1,-3.440026566E-2
2.105413705E0,9.373116493E-2,-1.608182192E-1,-3.246137872E-3
2.107415771E0,9.678549320E-2,-1.162250489E-1,1.691241376E-2
2.109417137E0,1.047267392E-1,-9.179044515E-2,3.279491141E-2
2.111418503E0,1.059484705E-1,-5.025160685E-2,5.967298150E-2
2.113419869E0,1.016724110E-1,-4.436714109E-3,7.127942145E-2
2.115421202E0,9.922894835E-2,1.694356836E-2,9.632489830E-2
2.117422535E0,9.556376189E-2,5.726067722E-2,1.280898899E-1
2.119423868E0,9.067683667E-2,7.131057978E-2,1.384745985E-1
2.121425168E0,8.029212803E-2,1.091842204E-1,1.647417992E-1
2.123426501E0,6.746395677E-2,1.470578611E-1,1.824568957E-1
2.125427834E0,5.524665490E-2,1.678272784E-1,1.922307462E-1
2.127429167E0,4.119675234E-2,2.050900608E-1,2.160544842E-1
2.129430533E0,2.348166145E-2,2.325789928E-1,2.246066034E-1
2.131431866E0,1.554041170E-2,2.484614998E-1,2.337695807E-1
2.133433232E0,-5.229006521E-3,2.716743648E-1,2.435434312E-1
2.135434265E0,-2.477669530E-2,2.991633117E-1,2.539281249E-1
2.137435598E0,-2.966361679E-2,3.009959161E-1,2.582041919E-1
2.139435931E0,-4.860043898E-2,3.132132292E-1,2.630910873E-1
2.141437297E0,-6.020687893E-2,3.168784082E-1,2.643128335E-1
2.143438597E0,-7.303504646E-2,3.187110126E-1,2.649236917E-1
2.145439963E0,-9.869138896E-2,3.242087960E-1,2.575933337E-1
2.147441329E0,-1.054109037E-1,3.223761916E-1,2.551498711E-1
2.149444062E0,-1.249585971E-1,3.272631168E-1,2.496520728E-1
2.151445395E0,-1.335107088E-1,3.290956914E-1,2.410999537E-1
2.153446761E0,-1.445062906E-1,3.223761916E-1,2.410999537E-1
2.155448094E0,-1.542801261E-1,3.162675500E-1,2.331587076E-1
2.157449427E0,-1.628322452E-1,3.022176623E-1,2.239957303E-1
2.159450827E0,-1.646648347E-1,2.881677151E-1,2.191088051E-1
2.161452160E0,-1.726060808E-1,2.845025361E-1,2.123892903E-1
2.163453493E0,-1.750495434E-1,2.783938944E-1,2.044480443E-1
2.165454593E0,-1.817690581E-1,2.673983276E-1,2.007828504E-1
2.167455226E0,-1.836016476E-1,2.594570518E-1,1.940633357E-1
2.169456526E0,-1.860451251E-1,2.576244771E-1,1.910089999E-1
2.171464192E0,-1.884885877E-1,2.515158355E-1,1.861220896E-1
2.173466392E0,-1.897103190E-1,2.429637164E-1,1.732939184E-1
2.175467725E0,-1.909320354E-1,2.429637164E-1,1.726830602E-1
2.177469058E0,-1.909320354E-1,2.344115973E-1,1.647417992E-1
2.179470124E0,-1.884885877E-1,2.307464033E-1,1.586331427E-1
2.181471490E0,-1.866559833E-1,2.319681346E-1,1.586331427E-1
2.183472823E0,-1.842125207E-1,2.307464033E-1,1.494701654E-1
2.185474123E0,-1.836016476E-1,2.338007390E-1,1.403071880E-1
2.187475456E0,-1.817690581E-1,2.313572764E-1,1.366419941E-1
2.189476756E0,-1.799364686E-1,2.362441868E-1,1.274790317E-1
2.191478089E0,-1.768821478E-1,2.313572764E-1,1.195377707E-1
2.193479422E0,-1.738278270E-1,2.392985225E-1,1.067096069E-1
2.195481055E0,-1.695517600E-1,2.423528433E-1,9.815749526E-2
2.197482421E0,-1.689408869E-1,2.417419702E-1,8.899451792E-2
2.199484154E0,-1.646648347E-1,2.423528433E-1,7.677720487E-2
2.201485487E0,-1.597779095E-1,2.447963059E-1,6.394904107E-2
2.203486853E0,-1.548909843E-1,2.441854328E-1,5.722952262E-2
2.205488219E0,-1.536692679E-1,2.362441868E-1,4.684481025E-2
2.207489585E0,-1.512258053E-1,2.429637164E-1,3.646010160E-2
2.209489818E0,-1.493932009E-1,2.411311120E-1,3.096231632E-2
2.211491151E0,-1.469497383E-1,2.386876494E-1,2.424279787E-2
2.213492484E0,-1.445062906E-1,2.307464033E-1,2.118847333E-2
2.215493817E0,-1.445062906E-1,2.252486050E-1,1.569068432E-2
2.217495183E0,-1.512258053E-1,2.118095905E-1,1.569068432E-2
2.219496516E0,-1.500040740E-1,1.995922923E-1,8.360302076E-3
2.221497849E0,-1.555018574E-1,1.922619045E-1,4.695110489E-3
2.223499215E0,-1.658865660E-1,1.794337332E-1,7.138571236E-3
2.225500548E0,-1.671082973E-1,1.745467931E-1,7.138571236E-3
2.227501848E0,-1.719952226E-1,1.690490097E-1,4.695110489E-3
2.229503248E0,-1.799364686E-1,1.653838158E-1,3.473379882E-3
2.233498714E0,-1.866559833E-1,1.495013237E-1,1.263635792E-2
2.235500080E0,-1.945972294E-1,1.415600777E-1,1.507981960E-2
2.237501413E0,-1.970406920E-1,1.372840255E-1,2.363193408E-2
2.239503046E0,-2.013167590E-1,1.330079585E-1,2.729712427E-2
2.241504379E0,-2.086471468E-1,1.281210482E-1,2.729712427E-2
2.243505745E0,-2.147557884E-1,1.177363321E-1,3.584923968E-2
2.245507111E0,-2.171992511E-1,1.067407578E-1,3.951442987E-2
2.247508444E0,-2.159775048E-1,1.018538326E-1,4.501221329E-2
2.249509844E0,-2.190318406E-1,9.879951179E-2,5.173173547E-2
2.251511510E0,-2.178101093E-1,8.474960923E-2,5.661865696E-2
2.253512843E0,-2.165883780E-1,7.864096016E-2,6.150557846E-2
2.255514176E0,-2.135340571E-1,6.825625151E-2,6.517077237E-2
2.257515509E0,-2.074254006E-1,5.664981157E-2,7.250115275E-2
2.259516742E0,-2.068145424E-1,5.176289007E-2,7.189028710E-2
2.261518042E0,-1.994841546E-1,3.465865925E-2,7.127942145E-2
2.263519108E0,-1.988732964E-1,2.610654756E-2,7.799893618E-2
2.265520174E0,-1.982624233E-1,-1.382387942E-3,7.860980183E-2
2.267521507E0,-1.836016476E-1,-2.520613372E-2,8.655105531E-2
2.269522840E0,-1.854342520E-1,-3.497997671E-2,8.410759270E-2
2.271524206E0,-1.799364686E-1,-6.369064003E-2,9.204884619E-2
2.273525539E0,-1.762712747E-1,-9.484477341E-2,9.388143569E-2
2.275526905E0,-1.689408869E-1,-1.070620716E-1,9.388143569E-2
2.277528238E0,-1.677191556E-1,-1.394379288E-1,9.204884619E-2
2.279529571E0,-1.579453051E-1,-1.724246591E-1,9.876835346E-2
2.281530937E0,-1.585561782E-1,-1.834202260E-1,9.876835346E-2
2.283532270E0,-1.548909843E-1,-2.109091580E-1,1.006009504E-1
2.285533870E0,-1.567235887E-1,-2.225156128E-1,1.006009504E-1
2.287535236E0,-1.506149322E-1,-2.377872318E-1,9.815749526E-2
2.289536569E0,-1.469497383E-1,-2.579458058E-1,9.999009222E-2
2.291537635E0,-1.445062906E-1,-2.695522010E-1,9.937922657E-2
2.293539001E0,-1.426736861E-1,-2.823804021E-1,9.876835346E-2
2.295540301E0,-1.420628130E-1,-2.970411777E-1,9.021624923E-2
2.297541367E0,-1.396193504E-1,-3.062041402E-1,9.082710743E-2
2.299542400E0,-1.341215670E-1,-3.214757740E-1,8.716192096E-2
2.301543733E0,-1.341215670E-1,-3.349148333E-1,8.532932401E-2
2.303545033E0,-1.322889775E-1,-3.440777957E-1,8.044239879E-2
2.305546366E0,-1.371759027E-1,-3.526299000E-1,7.433374971E-2
2.307547699E0,-1.280129254E-1,-3.703449965E-1,7.066855580E-2
2.309548765E0,-1.267911941E-1,-3.819514513E-1,6.578163058E-2
2.311549765E0,-1.255694628E-1,-4.027208686E-1,5.539692566E-2
2.313550865E0,-1.231260002E-1,-4.131055474E-1,5.173173547E-2
2.315552231E0,-1.157956198E-1,-4.399836361E-1,4.745567590E-2
2.317553564E0,-1.115195602E-1,-4.680834413E-1,3.890356421E-2
2.319554930E0,-1.054109037E-1,-4.925180376E-1,3.218404949E-2
2.321556263E0,-9.808052331E-2,-5.145092010E-1,3.096231632E-2
2.323557896E0,-9.197186679E-2,-5.450524092E-1,2.179933712E-2
2.325559462E0,-8.525235206E-2,-5.578806400E-1,1.813414507E-2
2.327560795E0,-8.036543429E-2,-5.853695869E-1,1.080376282E-2
2.329562161E0,-7.242418826E-2,-6.275193095E-1,5.305975210E-3
2.331563494E0,-7.059159130E-2,-6.452343464E-1,1.029918785E-3
2.333564827E0,-5.959601328E-2,-6.751667261E-1,-4.467868246E-3
2.335566160E0,-5.776341632E-2,-6.977687478E-1,-7.522194646E-3
2.337567460E0,-5.165476725E-2,-7.277011871E-1,-1.057652105E-2
2.339568793E0,-3.577227145E-2,-7.588552833E-1,-1.424171217E-2
2.341570126E0,-3.210707754E-2,-7.741269469E-1,-1.668517292E-2
2.343571426E0,-1.927890815E-2,-8.022267222E-1,-2.645901591E-2
2.345572826E0,-1.011592895E-2,-8.211635947E-1,-3.134594113E-2
2.347574159E0,-4.618141335E-3,-8.297156096E-1,-3.745459020E-2
2.349575459E0,8.820894174E-3,-8.455981612E-1,-3.928718716E-2
2.351577092E0,1.859473810E-2,-8.480416536E-1,-4.295237735E-2
2.353578458E0,3.081204183E-2,-8.541502953E-1,-4.722843692E-2
2.355579824E0,5.158146471E-2,-8.663675785E-1,-5.211535469E-2
2.357581490E0,7.051828504E-2,-8.895804286E-1,-5.516968668E-2
2.359583156E0,8.395732194E-2,-9.103498459E-1,-5.639141425E-2
2.361584522E0,1.047267392E-1,-9.353953004E-1,-5.272622406E-2
2.363585922E0,1.157223135E-1,-9.390605688E-1,-5.578054860E-2
2.365587288E0,1.267178953E-1,-9.555538893E-1,-5.394795164E-2
2.367588654E0,1.309939474E-1,-9.628843069E-1,-4.539583996E-2
2.369590354E0,1.316048056E-1,-9.586082101E-1,-4.417410865E-2
2.371591687E0,1.322156638E-1,-9.518887401E-1,-3.989805281E-2
2.373593253E0,1.261070222E-1,-9.408931136E-1,-3.378940374E-2
2.375594619E0,1.248852909E-1,-9.268432856E-1,-3.195680305E-2
2.377595985E0,1.206092387E-1,-9.134041667E-1,-2.829161286E-2
2.379597285E0,1.096136644E-1,-8.901913166E-1,-3.012420796E-2
2.381598685E0,1.126679853E-1,-8.840826154E-1,-2.462642081E-2
2.383600018E0,1.169440448E-1,-8.651458621E-1,-2.829161286E-2
2.385601351E0,1.193875074E-1,-8.541502953E-1,-2.829161286E-2
2.387602684E0,1.206092387E-1,-8.333808780E-1,-2.584815212E-2
2.389603984E0,1.291613430E-1,-8.077244759E-1,-2.768074721E-2
2.391605317E0,1.328265369E-1,-7.942854762E-1,-2.523728833E-2
2.393606650E0,1.462655813E-1,-7.594661713E-1,-1.912863366E-2
2.395607983E0,1.542068124E-1,-7.075425982E-1,-8.133059368E-3
2.397609349E0,1.597046107E-1,-6.837188601E-1,-2.635272685E-3
2.399610449E0,1.493199021E-1,-6.256866455E-1,1.324722357E-2
2.401611782E0,1.358808577E-1,-5.517719984E-1,3.340577707E-2
2.403613148E0,1.254961491E-1,-5.200069547E-1,4.623394832E-2
2.405614481E0,1.035050079E-1,-4.662508667E-1,7.799893618E-2
2.407621714E0,6.990741938E-2,-4.308206439E-1,1.067096069E-1
2.409623080E0,5.769011378E-2,-4.210468233E-1,1.262573004E-1
2.411624413E0,2.836858109E-2,-4.155490100E-1,1.543571055E-1
2.413625746E0,1.187522057E-2,-4.204359353E-1,1.714613140E-1
2.415627079E0,-1.866804063E-2,-4.405945241E-1,1.983393878E-1
2.417628412E0,-3.943746164E-2,-4.631965160E-1,2.221631259E-1
2.419629712E0,-4.554611072E-2,-4.754138291E-1,2.386564910E-1
2.421631045E0,-4.737870768E-2,-4.925180376E-1,2.691997588E-1
2.423632345E0,-3.516140208E-2,-5.035136342E-1,3.076842725E-1
2.425633645E0,-2.477669530E-2,-5.016810298E-1,3.333406150E-1
2.427635011E0,-5.839871708E-3,-4.931288958E-1,3.870967329E-1
2.429636277E0,3.203377500E-2,-4.815224707E-1,4.512376189E-1
2.431637643E0,5.524665490E-2,-4.833550751E-1,4.909438491E-1
2.433639043E0,9.617462009E-2,-5.022919178E-1,5.721889138E-1
2.435640376E0,1.151114479E-1,-5.108439922E-1,6.265559196E-1
2.437641709E0,1.517633647E-1,-5.646001697E-1,7.542267442E-1
2.439643109E0,1.743653715E-1,-6.769993305E-1,8.953366280E-1
2.441644442E0,1.804740280E-1,-7.612987757E-1,9.637535214E-1
2.443645775E0,1.707001776E-1,-9.335627556E-1,1.113415480E0
2.445647175E0,1.462655813E-1,-1.078337789E0,1.259412408E0
2.447648508E0,1.285504699E-1,-1.130872250E0,1.319887996E0
2.449649874E0,1.114462614E-1,-1.159582853E0,1.395635247E0
2.451651240E0,1.230526939E-1,-1.103383303E0,1.420069814E0
2.453652606E0,1.297722161E-1,-1.040464163E0,1.414572120E0
2.455653939E0,1.548176855E-1,-8.675892949E-1,1.369978905E0
2.457655272E0,1.670349836E-1,-7.802355886E-1,1.318055391E0
2.459656838E0,1.945239305E-1,-6.006411910E-1,1.209321380E0
2.461658138E0,2.085738182E-1,-4.430379570E-1,1.074320197E0
2.463659471E0,2.183476686E-1,-3.776753843E-1,9.985728860E-1
2.465660771E0,2.440040112E-1,-2.774934769E-1,8.391370177E-1
2.469657570E0,2.971493006E-1,-2.274025232E-1,5.813519359E-1
2.471658870E0,3.435750306E-1,-2.365655005E-1,4.194726348E-1
2.473660203E0,3.936659992E-1,-2.512262762E-1,2.710323632E-1
2.475661569E0,4.162679911E-1,-2.512262762E-1,1.989502609E-1
2.477662869E0,4.578068554E-1,-2.438958883E-1,5.600779131E-2
2.479664235E0,4.999565482E-1,-2.298459858E-1,-8.326948434E-2
2.481665601E0,5.176716447E-1,-2.072439790E-1,-1.480211914E-1
2.483666934E0,5.524909496E-1,-1.486009061E-1,-2.689725459E-1
2.485668300E0,5.647082329E-1,-1.107272655E-1,-3.227286637E-1
2.487669633E0,5.915863514E-1,-4.780814797E-2,-4.271866083E-1
2.489670966E0,6.123557687E-1,1.205664687E-2,-5.139294863E-1
2.491672332E0,6.233513355E-1,3.221520409E-2,-5.499705076E-1
2.493674498E0,6.355686784E-1,8.902566880E-2,-6.037266850E-1
2.495675798E0,6.300708652E-1,1.501121968E-1,-6.318264604E-1
2.497676898E0,6.294599771E-1,1.806554496E-1,-6.379351020E-1
2.499678231E0,6.135774851E-1,2.502940893E-1,-6.361025572E-1
2.501680364E0,5.897537470E-1,3.272631168E-1,-6.251069307E-1
2.503681730E0,5.830342174E-1,3.669693470E-1,-6.208308935E-1
2.505683063E0,5.610430837E-1,4.616534710E-1,-6.061701179E-1
2.507684429E0,5.476040840E-1,5.160204172E-1,-5.933420062E-1
2.509685795E0,5.237802863E-1,6.284196973E-1,-5.884550214E-1
2.511686861E0,5.103412271E-1,7.487601042E-1,-5.902876854E-1
2.513688194E0,5.060651898E-1,8.049597144E-1,-5.823463798E-1
2.515689560E0,4.969022274E-1,9.143046141E-1,-5.786812305E-1
2.517690926E0,4.944587648E-1,1.018151760E0,-5.817355514E-1
2.519692259E0,4.920153022E-1,1.056636214E0,-5.799029469E-1
2.521693625E0,4.883500934E-1,1.135437846E0,-5.750159621E-1
2.523694991E0,4.816305935E-1,1.180031061E0,-5.652421713E-1
2.525696357E0,4.785762727E-1,1.200800419E0,-5.573009253E-1
2.527697723E0,4.663589597E-1,1.224013329E0,-5.401967168E-1
2.529699089E0,4.498656094E-1,1.226456761E0,-5.310336947E-1
2.531700422E0,4.413134754E-1,1.222180605E0,-5.035447478E-1
2.533701788E0,4.174897373E-1,1.208130717E0,-4.778884351E-1
2.535703088E0,4.040507078E-1,1.202633023E0,-4.583407640E-1
2.537704454E0,3.710640073E-1,1.185528755E0,-4.271866083E-1
2.539705820E0,3.429641724E-1,1.175754905E0,-3.948107660E-1
2.541707153E0,3.301360309E-1,1.166591883E0,-3.807608783E-1
2.543708519E0,3.026470542E-1,1.171478868E0,-3.514393270E-1
2.545709885E0,2.794342041E-1,1.180641890E0,-3.227286637E-1
2.547711185E0,2.721038163E-1,1.180641890E0,-3.099004924E-1
2.549712518E0,2.537778616E-1,1.200800419E0,-2.872984707E-1
2.551713818E0,2.440040112E-1,1.219737172E0,-2.683616579E-1
2.553714018E0,2.336193025E-1,1.233787060E0,-2.567552328E-1
2.555715218E0,2.268997729E-1,1.246615410E0,-2.475922406E-1
2.557716884E0,2.275106460E-1,1.254556537E0,-2.420944571E-1
2.559718217E0,2.201802731E-1,1.273493409E0,-2.280445546E-1
2.561718783E0,2.220128626E-1,1.288154125E0,-2.182707042E-1
2.563720616E0,2.207911313E-1,1.294262767E0,-2.146055102E-1
2.565721949E0,2.262889296E-1,1.310756087E0,-2.042208165E-1
2.567723282E0,2.287323773E-1,1.321140885E0,-2.023882121E-1
2.569724615E0,2.360627651E-1,1.324805975E0,-2.005556226E-1
2.571726215E0,2.433931381E-1,1.337023258E0,-1.858948469E-1
2.573727548E0,2.556104660E-1,1.346186399E0,-1.810079217E-1
2.575728881E0,2.629408240E-1,1.350462437E0,-1.736775339E-1
2.577730181E0,2.812667787E-1,1.355960250E0,-1.577950418E-1
2.579731581E0,2.910406590E-1,1.357792735E0,-1.486320645E-1
2.581732914E0,3.050905466E-1,1.366344810E0,-1.358038932E-1
2.583734180E0,3.240273595E-1,1.376729608E0,-1.266409159E-1
2.585735546E0,3.301360309E-1,1.383449078E0,-1.180888042E-1
2.587736846E0,3.435750306E-1,1.394444704E0,-9.731938690E-2
2.589738179E0,3.533489108E-1,1.410327196E0,-8.265862614E-2
2.591739579E0,3.619010150E-1,1.401164174E0,-7.654996216E-2
2.593740912E0,3.759509027E-1,1.411548972E0,-6.127833575E-2
2.595742278E0,3.912225366E-1,1.413381457E0,-5.089362711E-2
2.597743344E0,3.967203498E-1,1.415825009E0,-4.478497431E-2
2.599744677E0,4.071050286E-1,1.408494592E0,-4.050891846E-2
2.601746010E0,4.217658043E-1,1.393223047E0,-4.539583996E-2
2.603747343E0,4.315396547E-1,1.379173040E0,-4.783930257E-2
2.605748676E0,4.431460798E-1,1.351073265E0,-5.822401121E-2
2.607750042E0,4.498656094E-1,1.336412430E0,-6.677612662E-2
2.609751408E0,4.639154971E-1,1.296706319E0,-7.960429043E-2
2.611752774E0,4.718567431E-1,1.263108611E0,-9.304332733E-2
2.613754407E0,4.779653847E-1,1.239895701E0,-1.028171703E-1
2.615755940E0,4.773545265E-1,1.206298232E0,-1.290843785E-1
2.617757173E0,4.736893177E-1,1.177587509E0,-1.522972584E-1
2.619758506E0,4.761328101E-1,1.165981054E0,-1.639036983E-1
2.621759806E0,4.700241387E-1,1.147044301E0,-1.950578243E-1
2.623760639E0,4.663589597E-1,1.125663996E0,-2.188815773E-1
2.625761972E0,4.590286016E-1,1.115279317E0,-2.262119651E-1
2.627763338E0,4.523090422E-1,1.100007653E0,-2.549226284E-1
2.629764638E0,4.492547214E-1,1.090844750E0,-2.683616579E-1
2.631766004E0,4.431460798E-1,1.057247043E0,-2.934071422E-1
2.633767337E0,4.297070503E-1,1.031590700E0,-3.215069175E-1
2.635768803E0,4.242092669E-1,1.013875723E0,-3.386111557E-1
2.637770169E0,4.144354165E-1,9.790563583E-1,-3.606022894E-1
2.639771469E0,4.034398496E-1,9.271327853E-1,-3.825934529E-1
2.641772802E0,3.942768574E-1,9.020872712E-1,-3.887021244E-1
2.643774202E0,3.851138949E-1,8.385573030E-1,-4.064171910E-1
2.645775502E0,3.710640073E-1,7.756381631E-1,-4.174127877E-1
2.647777102E0,3.637336195E-1,7.395971417E-1,-4.253540337E-1
2.649778435E0,3.490728438E-1,6.699584723E-1,-4.363496006E-1
2.651784435E0,3.338012099E-1,6.003198624E-1,-4.455125630E-1
2.653785768E0,3.252490759E-1,5.661114454E-1,-4.510103762E-1
2.655787134E0,3.032579422E-1,5.031923056E-1,-4.632276595E-1
2.657788767E0,2.953166664E-1,4.726490378E-1,-4.681145847E-1
2.659790100E0,2.782124579E-1,4.060647190E-1,-4.711689055E-1
2.661791200E0,2.598865032E-1,3.376478255E-1,-4.760558605E-1
2.663792266E0,2.495017946E-1,3.083263040E-1,-4.766667187E-1
2.665793599E0,2.299541235E-1,2.405202538E-1,-4.778884351E-1
2.667794965E0,2.116281539E-1,1.690490097E-1,-4.742232263E-1
2.669796298E0,2.030760348E-1,1.342296898E-1,-4.717797935E-1
2.671803931E0,2.030760348E-1,3.893471882E-2,-4.742232263E-1
2.673805264E0,1.676458567E-1,1.061072922E-3,-4.644494057E-1
2.675806597E0,1.517633647E-1,-2.031921037E-2,-4.632276595E-1
2.677807930E0,1.248852909E-1,-6.063631922E-2,-4.644494057E-1
2.679809296E0,1.132788509E-1,-8.446005732E-2,-4.644494057E-1
2.681810662E0,9.250943363E-2,-1.327184141E-1,-4.620059431E-1
2.683811995E0,7.845953107E-2,-1.883071661E-1,-4.632276595E-1
2.685813361E0,7.235087454E-2,-2.145743519E-1,-4.601733387E-1
2.687814661E0,6.807482243E-2,-2.658870220E-1,-4.583407640E-1
2.689816027E0,6.013357639E-2,-3.031498194E-1,-4.491777718E-1
2.691817360E0,5.402491987E-2,-3.129236698E-1,-4.400148094E-1
2.693818726E0,5.402491987E-2,-3.379691541E-1,-4.277974963E-1
2.695819659E0,6.379877031E-2,-3.630146086E-1,-4.210779667E-1
2.697821025E0,5.952271074E-2,-3.581276834E-1,-4.113041162E-1
2.699822991E0,4.974886775E-2,-3.288061619E-1,-3.954216242E-1
2.701824457E0,4.974886775E-2,-3.184214532E-1,-3.899238408E-1
2.703826290E0,4.547280818E-2,-2.982628942E-1,-3.770956695E-1
2.705827656E0,4.058588669E-2,-2.848238647E-1,-3.581588566E-1
2.707828756E0,4.180761799E-2,-2.750500143E-1,-3.526610732E-1
2.709830122E0,4.608367383E-2,-2.671087682E-1,-3.300590515E-1
2.713828154E0,5.952271074E-2,-2.493936718E-1,-3.001266420E-1
2.715829220E0,6.807482243E-2,-2.298459858E-1,-2.824115455E-1
2.717830553E0,6.990741938E-2,-2.170178294E-1,-2.671399117E-1
2.719831886E0,7.357260585E-2,-2.121309042E-1,-2.524791658E-1
2.721833452E0,7.845953107E-2,-1.993027329E-1,-2.323206067E-1
2.723835085E0,8.701164275E-2,-1.828093678E-1,-2.133837938E-1
2.725836418E0,8.945510536E-2,-1.742572486E-1,-1.987230182E-1
2.727837718E0,9.800721705E-2,-1.602073461E-1,-1.779536009E-1
2.729839018E0,9.861809015E-2,-1.486009061E-1,-1.663471460E-1
2.731840251E0,1.016724110E-1,-1.284423470E-1,-1.571841687E-1
2.733841584E0,1.016724110E-1,-1.027860194E-1,-1.358038932E-1
2.735842650E0,9.739635140E-2,-8.995784819E-2,-1.333604306E-1
2.737844416E0,9.067683667E-2,-5.269506946E-2,-1.101475507E-1
2.739846016E0,8.823337406E-2,-1.359969284E-2,-1.015954465E-1
2.741847349E0,7.968126237E-2,-1.993253361E-3,-9.731938690E-2
2.743848682E0,7.418347150E-2,3.710212186E-2,-8.754553646E-2
2.745853815E0,7.479434460E-2,6.764538586E-2,-7.716083527E-2
2.747855481E0,7.174001634E-2,8.291701227E-2,-7.227391005E-2
2.749856847E0,6.929655373E-2,1.055190265E-1,-6.738698483E-2
2.751858180E0,6.807482243E-2,1.232341230E-1,-6.372179836E-2
2.753862280E0,6.013357639E-2,1.446144134E-1,-5.822401121E-2
2.755863880E0,5.280319229E-2,1.812663227E-1,-4.967189953E-2
2.757865213E0,4.913800210E-2,1.885967106E-1,-5.333708972E-2
2.759865946E0,3.875329345E-2,2.142530382E-1,-4.173064977E-2
2.761867212E0,3.142290935E-2,2.447963059E-1,-2.645901591E-2
2.763868078E0,3.020117804E-2,2.533484101E-1,-2.340469137E-2
2.765869411E0,2.653598599E-2,2.790047526E-1,-1.607430913E-2
2.767870777E0,1.737300679E-2,2.967198491E-1,-2.635272685E-3
2.769872077E0,1.370781567E-2,3.083263040E-1,4.695110489E-3
2.771874143E0,5.155702587E-3,3.168784082E-1,1.752328128E-2
2.773875476E0,2.101376420E-3,3.278740048E-1,3.157318011E-2
2.775877042E0,-3.396410728E-3,3.309283257E-1,3.218404949E-2
2.777878408E0,-8.283332922E-3,3.431456089E-1,4.928827286E-2
2.779879741E0,-9.505063295E-3,3.431456089E-1,4.867740721E-2
2.781881107E0,-1.194852404E-2,3.565846682E-1,6.150557846E-2
2.783882473E0,-1.683544554E-2,3.523086011E-1,7.250115275E-2
2.785886573E0,-2.294410020E-2,3.565846682E-1,8.105327189E-2
2.787887939E0,-2.538755909E-2,3.596389890E-1,9.204884619E-2
2.789889339E0,-2.905275114E-2,3.620824218E-1,1.006009504E-1
2.793885871E0,-3.210707754E-2,3.730779886E-1,1.091530696E-1
2.795887504E0,-3.699399903E-2,3.810192645E-1,1.164834499E-1
2.797888470E0,-3.577227145E-2,3.816301227E-1,1.128182635E-1
2.799889536E0,-3.638313338E-2,3.871279061E-1,1.140399873E-1
2.801890902E0,-3.332880884E-2,3.804083765E-1,1.140399873E-1
2.803892268E0,-3.332880884E-2,3.736888766E-1,1.140399873E-1
2.805896268E0,-3.393967450E-2,3.669693470E-1,1.054878756E-1
2.807897334E0,-3.088534810E-2,3.669693470E-1,9.815749526E-2
2.809898400E0,-1.805717684E-2,3.498651385E-1,8.716192096E-2
2.811899733E0,-1.011592895E-2,3.248196542E-1,7.250115275E-2
2.815899699E0,5.766567774E-3,2.991633117E-1,4.317962006E-2
2.817901032E0,1.187522057E-2,2.777830064E-1,2.057760581E-2
2.819902365E0,1.798387244E-2,2.637331188E-1,1.324722357E-2
2.821903665E0,2.897944674E-2,2.417419702E-1,-8.133059368E-3
2.823904998E0,3.875329345E-2,2.221942842E-1,-1.851776801E-2
2.825906731E0,4.119675234E-2,2.185291052E-1,-4.295237735E-2
2.827908064E0,5.707925186E-2,1.940944940E-1,-6.005660444E-2
2.829909430E0,6.074443832E-2,1.892075688E-1,-7.227391005E-2
2.831910030E0,7.296174765E-2,1.672164202E-1,-9.182160348E-2
2.833911363E0,8.456818759E-2,1.580534428E-1,-1.180888042E-1
2.835912729E0,9.006597102E-2,1.495013237E-1,-1.272517890E-1
2.837914062E0,1.071701944E-1,1.433926672E-1,-1.406908184E-1
2.839915428E0,1.206092387E-1,1.372840255E-1,-1.608493626E-1
2.841916794E0,1.279396117E-1,1.305644959E-1,-1.681797504E-1
2.843918094E0,1.377134621E-1,1.189580709E-1,-1.791753173E-1
2.847918026E0,1.529850960E-1,1.018538326E-1,-1.993338764E-1
2.849919359E0,1.603154689E-1,9.269085526E-2,-2.054425329E-1
2.851920692E0,1.652023941E-1,9.085825831E-2,-2.109403163E-1
2.853922058E0,1.707001776E-1,8.169528097E-2,-2.152163833E-1
2.855923358E0,1.725327820E-1,8.108442277E-2,-2.201033086E-1
2.857924658E0,1.725327820E-1,8.108442277E-2,-2.207141668E-1
2.859926024E0,1.627589464E-1,7.986268401E-2,-2.194924355E-1
2.861927357E0,1.639806628E-1,7.192143798E-2,-2.146055102E-1
2.863928690E0,1.658132672E-1,6.398019195E-2,-2.146055102E-1
2.867924856E0,1.474872977E-1,5.237375200E-2,-2.029990703E-1
2.869926422E0,1.407677978E-1,5.176289007E-2,-1.993338764E-1
2.871927755E0,1.426003873E-1,4.382164031E-2,-1.895600408E-1
2.873929055E0,1.364917308E-1,3.710212186E-2,-1.840622574E-1
2.875930355E0,1.309939474E-1,2.060876042E-2,-1.742884070E-1
2.877931688E0,1.358808577E-1,4.115399439E-3,-1.663471460E-1
2.879933021E0,1.322156638E-1,-1.237796247E-2,-1.614602357E-1
2.881934354E0,1.383243203E-1,-4.292122647E-2,-1.461886019E-1
2.883935687E0,1.432112455E-1,-7.712967694E-2,-1.358038932E-1
2.885936620E0,1.438221186E-1,-8.995784819E-2,-1.303061098E-1
2.887937920E0,1.505416334E-1,-1.088946685E-1,-1.113692820E-1
2.889939253E0,1.511524916E-1,-1.211119741E-1,-9.548678994E-2
2.891940586E0,1.505416334E-1,-1.327184141E-1,-8.693467826E-2
2.893941919E0,1.468764395E-1,-1.461574584E-1,-7.227391005E-2
2.895943252E0,1.407677978E-1,-1.528769732E-1,-5.089362711E-2
2.897944552E0,1.444329768E-1,-1.620399505E-1,-4.417410865E-2
2.899945885E0,1.346591413E-1,-1.699811965E-1,-2.829161286E-2
2.901947185E0,1.328265369E-1,-1.797550321E-1,-1.912863366E-2
2.903948518E0,1.236635596E-1,-1.901397556E-1,5.916840397E-3
2.905949884E0,1.096136644E-1,-1.974701434E-1,1.263635792E-2
2.907953284E0,1.059484705E-1,-2.133526355E-1,2.424279787E-2
2.909954584E0,1.028941423E-1,-2.267916501E-1,3.584923968E-2
2.911955917E0,8.456818759E-2,-2.445067614E-1,5.356433243E-2
2.913957217E0,8.456818759E-2,-2.555023432E-1,5.784038454E-2
2.915958550E0,7.112915069E-2,-2.762717605E-1,7.127942145E-2
2.917959950E0,6.013357639E-2,-2.952085435E-1,8.655105531E-2
2.919961283E0,5.219232664E-2,-3.025389314E-1,9.265970439E-2
2.921962583E0,4.241848364E-2,-3.239192367E-1,1.030444205E-1
2.923963949E0,3.814242408E-2,-3.330822289E-1,1.042661443E-1
2.925969182E0,4.058588669E-2,-3.538516164E-1,1.128182635E-1
2.927970548E0,3.447723389E-2,-3.715667129E-1,1.232029647E-1
2.929971948E0,3.142290935E-2,-3.856166303E-1,1.238138378E-1
2.931973281E0,2.470339090E-2,-4.045534432E-1,1.305333525E-1
2.933974614E0,2.531425655E-2,-4.332641363E-1,1.335876733E-1
2.935975980E0,1.981646940E-2,-4.442597032E-1,1.348094046E-1
2.937977313E0,1.798387244E-2,-4.674725533E-1,1.390854716E-1
2.939978646E0,2.164906450E-2,-4.888528585E-1,1.372528672E-1
2.941980012E0,2.042733319E-2,-5.041244626E-1,1.421397924E-1
2.943981345E0,1.615127735E-2,-5.413872600E-1,1.372528672E-1
2.945982678E0,1.737300679E-2,-5.762066245E-1,1.329768002E-1
2.947984078E0,2.409252524E-2,-5.933107734E-1,1.262573004E-1
2.949985444E0,2.714684978E-2,-6.360713243E-1,1.158725843E-1
2.951986777E0,3.264463693E-2,-6.580625176E-1,1.103747934E-1
2.953988110E0,3.630983084E-2,-7.026556730E-1,1.036552787E-1
2.955989476E0,3.936415538E-2,-7.417510152E-1,9.693576396E-2
2.957990842E0,3.875329345E-2,-7.667965889E-1,8.838365227E-2
2.959992175E0,4.974886775E-2,-8.126114607E-1,7.799893618E-2
2.961993408E0,5.341405794E-2,-8.541502953E-1,6.944682449E-2
2.963994774E0,5.219232664E-2,-8.718653321E-1,6.517077237E-2
2.965996140E0,6.379877031E-2,-9.164584875E-1,4.928827286E-2
2.969996739E0,7.479434460E-2,-9.702146649E-1,2.790798992E-2
2.971998105E0,8.640077710E-2,-1.000146985E0,1.691241376E-2
2.973999471E0,8.701164275E-2,-1.013586164E0,1.202549320E-2
2.976001571E0,1.035050079E-1,-1.029468656E0,4.695110489E-3
2.978002904E0,1.114462614E-1,-1.056346655E0,-4.467868246E-3
2.980004204E0,1.163331792E-1,-1.066731334E0,-8.743925020E-3
2.982005570E0,1.267178953E-1,-1.083224773E0,-1.607430913E-2
2.984006903E0,1.340482682E-1,-1.100328922E0,-2.157209627E-2
2.988005702E0,1.432112455E-1,-1.107048512E0,-2.706988342E-2
2.990011635E0,1.474872977E-1,-1.116822243E0,-3.134594113E-2
2.992013001E0,1.505416334E-1,-1.123541832E0,-3.745459020E-2
2.994014401E0,1.444329768E-1,-1.120487571E0,-3.867632151E-2
2.996015767E0,1.456547081E-1,-1.116211414E0,-3.745459020E-2
2.998017133E0,1.426003873E-1,-1.103994131E0,-3.562199324E-2
3.000018533E0,1.462655813E-1,-1.077726960E0,-3.012420796E-2
3.002019899E0,1.462655813E-1,-1.056957483E0,-2.584815212E-2
3.004021265E0,1.444329768E-1,-1.014196992E0,-2.096122876E-2
3.006022665E0,1.487090290E-1,-9.634951949E-1,-1.240911707E-2
3.008023965E0,1.493199021E-1,-9.347844720E-1,-5.078733433E-3
3.010025265E0,1.505416334E-1,-8.791957498E-1,4.084245302E-3
3.012026665E0,1.450438350E-1,-8.193309307E-1,1.813414507E-2
3.014028031E0,1.432112455E-1,-7.967289686E-1,2.729712427E-2
3.016029331E0,1.334374100E-1,-7.454162836E-1,4.256875440E-2
3.018030664E0,1.199983656E-1,-7.050991058E-1,6.639250368E-2
3.020031997E0,1.157223135E-1,-6.849406362E-1,7.738807797E-2
3.022033430E0,1.102245227E-1,-6.715015769E-1,9.571403265E-2
3.024034796E0,1.053375974E-1,-6.672255397E-1,1.103747934E-1
3.026036129E0,1.028941423E-1,-6.715015769E-1,1.378637403E-1
3.028037495E0,9.922894835E-2,-6.794428229E-1,1.641309410E-1
3.030038861E0,9.861809015E-2,-6.873840094E-1,1.806242913E-1
3.032040194E0,9.678549320E-2,-7.032665610E-1,2.050589174E-1
3.034041527E0,9.739635140E-2,-7.160947323E-1,2.343804538E-1
3.036042160E0,9.006597102E-2,-7.246468663E-1,2.539281249E-1
3.038043460E0,7.723779976E-2,-7.264794111E-1,2.930234969E-1
3.040044826E0,6.563135982E-2,-7.075425982E-1,3.327297270E-1
3.042046192E0,5.341405794E-2,-6.983796358E-1,3.437253237E-1
3.044047492E0,3.386636823E-2,-6.317953467E-1,3.834315538E-1
3.046048825E0,1.615127735E-2,-6.073607206E-1,4.060335755E-1
3.048050191E0,-2.355496399E-2,-5.597131848E-1,4.604005814E-1
3.052048290E0,-7.608937472E-2,-4.723595083E-1,5.495868921E-1
3.054049623E0,-1.231260002E-1,-4.161598682E-1,6.125060320E-1
3.056050956E0,-1.518366635E-1,-4.412053525E-1,6.888641715E-1
3.058052322E0,-1.762712747E-1,-4.931288958E-1,7.206291556E-1
3.060053655E0,-2.373578101E-1,-6.525647640E-1,7.756070495E-1
3.062054988E0,-3.131051064E-1,-7.252576947E-1,8.183676004E-1
3.064056354E0,-3.430374861E-1,-7.075425982E-1,8.440240026E-1
3.066057687E0,-3.974044919E-1,-6.342387795E-1,8.782324195E-1
3.068059053E0,-4.041240215E-1,-5.371112227E-1,8.873953819E-1
3.070060453E0,-3.857980669E-1,-5.090113878E-1,8.715128899E-1
3.072061553E0,-3.118833601E-1,-4.711377621E-1,8.140915632E-1
3.074062886E0,-2.709553838E-1,-4.766355455E-1,7.719418406E-1
3.076064286E0,-1.756604165E-1,-5.193961263E-1,6.711491346E-1
3.078065619E0,-1.041891798E-1,-6.122476459E-1,5.611933470E-1
3.080066985E0,-8.830668032E-2,-6.611168981E-1,5.062155128E-1
3.082068385E0,-8.036543429E-2,-7.179273367E-1,3.944271207E-1
3.084069718E0,-1.194608063E-1,-6.983796358E-1,3.027973771E-1
3.086071051E0,-1.432845443E-1,-6.727232933E-1,2.765301466E-1
3.088072417E0,-1.994841546E-1,-6.336279511E-1,2.404890954E-1
3.090075017E0,-2.471316308E-1,-5.841478109E-1,2.142218947E-1
3.092076350E0,-2.642358840E-1,-5.560480356E-1,1.952850670E-1
3.094077716E0,-2.923356593E-1,-5.047353506E-1,1.775699705E-1
3.096079049E0,-2.972225845E-1,-4.827441871E-1,1.726830602E-1
3.098080415E0,-3.088290393E-1,-4.387618899E-1,1.622983366E-1
3.100081781E0,-3.210463226E-1,-4.173816144E-1,1.476375759E-1
3.102083081E0,-3.253223896E-1,-4.112729728E-1,1.409180611E-1
3.104084447E0,-3.338745236E-1,-3.923361599E-1,1.140399873E-1
3.106085813E0,-3.424266279E-1,-3.825622797E-1,7.555548102E-2
3.108087146E0,-3.442592025E-1,-3.819514513E-1,6.150557846E-2
3.110088479E0,-3.430374861E-1,-3.825622797E-1,3.462750465E-2
3.112089812E0,-3.387614489E-1,-3.569059670E-1,7.749436423E-3
3.114091145E0,-3.295984566E-1,-3.373582661E-1,-1.918116759E-4
3.116092478E0,-3.216572106E-1,-2.781043351E-1,-3.857003292E-3
3.118093778E0,-3.149376810E-1,-2.377872318E-1,-1.912863366E-2
3.120095111E0,-2.990551889E-1,-1.382161975E-1,-2.401555702E-2
3.122096477E0,-2.801183760E-1,-3.803430125E-2,-2.584815212E-2
3.124097777E0,-2.715662420E-1,7.169725373E-3,-2.645901591E-2
3.126099077E0,-2.617924213E-1,1.104059517E-1,-3.134594113E-2
3.128100410E0,-2.538511753E-1,2.008140087E-1,-3.440026566E-2
3.130101710E0,-2.544620335E-1,2.466289103E-1,-3.501113132E-2
3.132103243E0,-2.507968247E-1,3.101588786E-1,-4.111978039E-2
3.134104609E0,-2.569054961E-1,3.553629220E-1,-6.250006706E-2
3.136105942E0,-2.599598169E-1,3.663584888E-1,-7.471737266E-2
3.138107042E0,-2.752314508E-1,3.791866601E-1,-8.815640956E-2
3.140109008E0,-2.929465473E-1,3.791866601E-1,-1.070932299E-1
3.142110341E0,-3.002769053E-1,3.694128096E-1,-1.107584238E-1
3.144111374E0,-3.253223896E-1,3.541411757E-1,-1.138127446E-1
3.146113374E0,-3.412048817E-1,3.419238925E-1,-1.119801477E-1
3.148114674E0,-3.693046868E-1,3.217653334E-1,-1.034280360E-1
3.150114740E0,-4.029022753E-1,3.046610951E-1,-1.034280360E-1
3.152116106E0,-4.187847972E-1,3.034393489E-1,-9.976284951E-2
3.154117439E0,-4.536041021E-1,3.040502369E-1,-8.998900652E-2
3.156118772E0,-4.792604446E-1,3.119914830E-1,-7.838255912E-2
3.158120138E0,-4.933103323E-1,3.168784082E-1,-7.288477570E-2
3.160121471E0,-5.036950111E-1,3.223761916E-1,-5.455881730E-2
3.162125271E0,-5.079711080E-1,3.443673253E-1,-3.317853436E-2
3.164126637E0,-5.134688616E-1,3.541411757E-1,-2.584815212E-2
3.166127703E0,-5.030841827E-1,3.859061897E-1,-8.743925020E-3
3.168129003E0,-4.945320785E-1,3.969017565E-1,4.190535401E-4
3.170130369E0,-4.768169820E-1,4.103407860E-1,8.971166797E-3
3.172131669E0,-4.554367065E-1,4.243906736E-1,2.241020277E-2
3.174133002E0,-4.438302517E-1,4.311102033E-1,2.485366166E-2
3.176134368E0,-4.242825508E-1,4.292776287E-1,2.668625861E-2
3.178135734E0,-4.029022753E-1,4.421057701E-1,3.218404949E-2
3.180137067E0,-3.937392831E-1,4.476035833E-1,2.607539296E-2
3.182138400E0,-3.778568208E-1,4.708164334E-1,2.912972122E-2
3.184139766E0,-3.607525826E-1,4.989162683E-1,2.668625861E-2
3.186141132E0,-3.601417243E-1,5.190748572E-1,2.912972122E-2
3.188144365E0,-3.436483443E-1,5.612244606E-1,3.096231632E-2
3.190145731E0,-3.369288445E-1,6.003198624E-1,3.096231632E-2
3.192147131E0,-3.314310610E-1,6.229218841E-1,3.279491141E-2
3.194148464E0,-3.216572106E-1,6.614064574E-1,4.012529552E-2
3.196149497E0,-3.149376810E-1,6.803432107E-1,4.134702682E-2
3.198151130E0,-3.039421141E-1,7.114973664E-1,5.051000044E-2
3.200151863E0,-2.935574055E-1,7.432623506E-1,5.173173547E-2
3.202153196E0,-2.923356593E-1,7.573122382E-1,5.234259740E-2
3.204154862E0,-2.788966298E-1,7.738056183E-1,4.867740721E-2
3.206155562E0,-2.715662420E-1,7.786924839E-1,4.684481025E-2
3.208156895E0,-2.617924213E-1,7.841902971E-1,4.562308267E-2
3.210158261E0,-2.501859665E-1,7.780816555E-1,3.829269856E-2
3.212159561E0,-2.410229892E-1,7.841902971E-1,2.424279787E-2
3.214160861E0,-2.385795265E-1,7.829685807E-1,2.485366166E-2
3.216162194E0,-2.233078927E-1,7.860229015E-1,9.582032450E-3
3.218163527E0,-2.159775048E-1,7.945750356E-1,5.305975210E-3
3.220164860E0,-2.141449153E-1,7.994619608E-1,-1.918116759E-4
3.224165093E0,-2.019276172E-1,8.190096617E-1,-9.965655394E-3
3.230643335E0,-2.000950128E-1,8.293943405E-1,-1.973949932E-2
3.232651501E0,-2.049819529E-1,8.416116238E-1,-2.890247665E-2
3.234652834E0,-2.092579901E-1,8.446659446E-1,-3.317853436E-2
3.236654200E0,-2.220861614E-1,8.477202654E-1,-4.722843692E-2
3.238656100E0,-2.294165492E-1,8.367247581E-1,-5.333708972E-2
3.240657433E0,-2.324708700E-1,8.324486613E-1,-5.578054860E-2
3.242658766E0,-2.434664518E-1,8.104575276E-1,-6.860871613E-2
3.244660099E0,-2.483533770E-1,8.006836772E-1,-7.044131309E-2
3.246661399E0,-2.599598169E-1,7.652534842E-1,-7.471737266E-2
3.248662732E0,-2.801183760E-1,7.334885001E-1,-8.082602918E-2
3.250664098E0,-2.880595922E-1,7.249364257E-1,-8.326948434E-2
3.254664864E0,-3.381505609E-1,6.607955098E-1,-9.304332733E-2
3.256666164E0,-3.509787321E-1,6.351392269E-1,-9.793025255E-2
3.258667464E0,-3.760241866E-1,5.923786163E-1,-9.548678994E-2
3.260669097E0,-4.010696709E-1,5.428985357E-1,-9.182160348E-2
3.262670430E0,-4.138978720E-1,5.221291780E-1,-9.182160348E-2
3.264671996E0,-4.413867891E-1,4.640969336E-1,-8.815640956E-2
3.266673329E0,-4.749843776E-1,4.109516740E-1,-8.082602918E-2
3.268674662E0,-4.933103323E-1,3.797975183E-1,-8.021515608E-2
3.270675995E0,-5.146906376E-1,2.985524535E-1,-8.449121565E-2
3.272677395E0,-5.324056745E-1,2.625113726E-1,-8.815640956E-2
3.274678695E0,-5.769988894E-1,1.977596879E-1,-9.059987217E-2
3.276680828E0,-6.222028732E-1,1.275101751E-1,-9.365420043E-2
3.278682228E0,-6.448049545E-1,8.902566880E-2,-8.449121565E-2
3.280683594E0,-6.881763339E-1,-2.276267298E-2,-9.243246168E-2
3.282684660E0,-7.498736978E-1,-1.290532202E-1,-9.609765559E-2
3.284686026E0,-7.669779658E-1,-1.760898381E-1,-7.716083527E-2
3.286687392E0,-7.791952491E-1,-2.664978802E-1,-5.150449276E-2
3.288688725E0,-8.127928376E-1,-3.220866323E-1,-3.501113132E-2
3.290690091E0,-8.341731429E-1,-3.593494296E-1,-3.378940374E-2
3.294685690E0,-8.787662983E-1,-4.790790081E-1,-2.462642081E-2
3.296687056E0,-8.995357156E-1,-5.627675653E-1,-1.851776801E-2
3.298687856E0,-9.178617001E-1,-6.568408012E-1,-1.363084652E-2
3.300689156E0,-9.325224757E-1,-6.806645393E-1,-1.546344254E-2
3.302690522E0,-9.563462138E-1,-7.191490531E-1,-8.133059368E-3
3.304691888E0,-9.703961015E-1,-7.582444549E-1,-8.026768919E-4
3.306693254E0,-9.777265191E-1,-7.729052305E-1,4.695110489E-3
3.308694587E0,-9.783373475E-1,-8.199418187E-1,1.507981960E-2
3.310695887E0,-9.697852135E-1,-8.559828401E-1,2.057760581E-2
3.312697253E0,-9.636765718E-1,-8.761414289E-1,1.813414507E-2
3.314698619E0,-9.477940798E-1,-8.999651670E-1,3.035145067E-2
3.316699985E0,-9.227486253E-1,-9.213454723E-1,3.523837402E-2
3.318701351E0,-9.105312824E-1,-9.280649424E-1,3.768183663E-2
3.320702717E0,-8.781554699E-1,-9.305084348E-1,4.745567590E-2
3.322704050E0,-8.671598434E-1,-9.353953004E-1,5.417519435E-2
3.324705150E0,-8.476122022E-1,-9.341736436E-1,6.211644411E-2
3.326706483E0,-8.219558001E-1,-9.054629803E-1,7.494460791E-2
3.328707783E0,-8.103494048E-1,-8.895804286E-1,7.799893618E-2
3.330709116E0,-7.975212336E-1,-8.541502953E-1,8.777277917E-2
3.332710682E0,-7.804169655E-1,-8.236069679E-1,9.693576396E-2
3.334711782E0,-7.681996822E-1,-8.058919311E-1,1.103747934E-1
3.336712048E0,-7.486520410E-1,-7.283120155E-1,1.183160469E-1
3.338713348E0,-7.242174149E-1,-6.470669508E-1,1.354202777E-1
3.340714648E0,-7.120001316E-1,-6.153019667E-1,1.470267177E-1
3.342716281E0,-6.973393559E-1,-5.572697520E-1,1.684069932E-1
3.344717581E0,-6.857329011E-1,-5.352786183E-1,1.787917018E-1
3.346718914E0,-6.747373343E-1,-4.949615300E-1,2.062806338E-1
3.348720280E0,-6.625199914E-1,-4.662508667E-1,2.227739990E-1
3.350721580E0,-6.667960882E-1,-4.503683448E-1,2.337695807E-1
3.352722913E0,-6.661852002E-1,-4.149381816E-1,2.539281249E-1
3.354724579E0,-6.692395210E-1,-3.776753843E-1,2.618693709E-1
3.356725912E0,-6.710721254E-1,-3.562951088E-1,2.698106468E-1
3.358727245E0,-6.777916551E-1,-3.220866323E-1,2.875257134E-1
3.360728611E0,-6.839002967E-1,-2.909325361E-1,2.985213101E-1
3.362729911E0,-6.918415427E-1,-2.726065814E-1,2.966886759E-1
3.364731244E0,-7.003936768E-1,-2.335111797E-1,3.027973771E-1
3.366732610E0,-7.034479976E-1,-1.986918598E-1,3.027973771E-1
3.368733976E0,-7.126109600E-1,-1.907506138E-1,2.972995639E-1
3.370735342E0,-7.211630940E-1,-1.595964879E-1,2.954669893E-1
3.372736675E0,-7.284934521E-1,-1.400488019E-1,2.875257134E-1
3.374738008E0,-7.358238697E-1,-1.156141907E-1,2.832496762E-1
3.376739341E0,-7.431542277E-1,-8.568179607E-2,2.777518630E-1
3.378740707E0,-7.468193769E-1,-6.735583395E-2,2.685889006E-1
3.380742040E0,-7.535389662E-1,-3.070392087E-2,2.588150501E-1
3.382743373E0,-7.645344734E-1,-7.715228130E-4,2.502629459E-1
3.384744739E0,-7.657562494E-1,1.022405177E-2,2.423216850E-1
3.386746105E0,-7.749192119E-1,3.649125621E-2,2.374347746E-1
3.388747438E0,-7.889690995E-1,5.237375200E-2,2.233848721E-1
3.390748804E0,-7.908017039E-1,5.970413610E-2,2.227739990E-1
3.392749904E0,-7.889690995E-1,7.192143798E-2,2.172762156E-1
3.394751504E0,-7.926342487E-1,7.741922885E-2,2.117784321E-1
3.396753170E0,-7.932451963E-1,8.597134054E-2,2.050589174E-1
3.398754536E0,-7.950777411E-1,8.536047488E-2,2.020045817E-1
3.400755902E0,-7.901908755E-1,8.536047488E-2,1.952850670E-1
3.402757235E0,-7.779735923E-1,8.719307184E-2,2.001719773E-1
3.404758601E0,-7.767518163E-1,8.169528097E-2,1.952850670E-1
3.406759934E0,-7.718648911E-1,8.047355711E-2,1.958959401E-1
3.408761267E0,-7.608693242E-1,8.474960923E-2,1.903981417E-1
3.410762600E0,-7.498736978E-1,9.146913141E-2,1.903981417E-1
3.412764000E0,-7.474303246E-1,9.879951179E-2,1.922307462E-1
3.414765333E0,-7.388781905E-1,1.018538326E-1,1.861220896E-1
3.416766633E0,-7.364346981E-1,1.055190265E-1,1.812351644E-1
3.418767966E0,-7.199413180E-1,1.134602800E-1,1.787917018E-1
3.420769332E0,-7.083349228E-1,1.268993169E-1,1.739047915E-1
3.422770698E0,-7.052806020E-1,1.348405629E-1,1.653526723E-1
3.424772064E0,-6.918415427E-1,1.415600777E-1,1.610766202E-1
3.426773664E0,-6.741264462E-1,1.531665176E-1,1.482484490E-1
3.428774997E0,-6.692395210E-1,1.586643010E-1,1.445832551E-1
3.430776363E0,-6.539679170E-1,1.543882489E-1,1.287007630E-1
3.432777729E0,-6.423614621E-1,1.574425846E-1,1.152617186E-1
3.434779029E0,-6.380853653E-1,1.580534428E-1,1.067096069E-1
3.436780362E0,-6.240355372E-1,1.513339281E-1,8.594018221E-2
3.438781695E0,-6.093747616E-1,1.305644959E-1,7.127942145E-2
3.440782995E0,-6.044877768E-1,1.256775856E-1,6.211644411E-2
3.442784361E0,-5.983791351E-1,1.073516235E-1,4.440135136E-2
3.444785694E0,-5.953248143E-1,8.902566880E-2,3.340577707E-2
3.446787027E0,-5.898270011E-1,5.726067722E-2,2.118847333E-2
3.448788427E0,-5.867726803E-1,2.183049172E-2,-8.026768919E-4
3.450789727E0,-5.849401355E-1,4.726264626E-3,-1.179825142E-2
3.452791060E0,-5.843293071E-1,-3.131478652E-2,-2.279382572E-2
3.454792393E0,-5.824966431E-1,-5.697112530E-2,-3.317853436E-2
3.456793726E0,-5.861618519E-1,-7.529707998E-2,-4.111978039E-2
3.458795059E0,-5.849401355E-1,-1.003425568E-1,-5.211535469E-2
3.460796392E0,-5.898270011E-1,-1.247771680E-1,-6.616526097E-2
3.462797725E0,-5.916596651E-1,-1.394379288E-1,-6.983045489E-2
3.464799058E0,-5.953248143E-1,-1.504334956E-1,-8.204775304E-2
3.466800391E0,-5.983791351E-1,-1.577638835E-1,-8.815640956E-2
3.468801724E0,-5.983791351E-1,-1.736463904E-1,-9.731938690E-2
3.470803090E0,-6.044877768E-1,-1.828093678E-1,-1.077040955E-1
3.472804390E0,-6.020443439E-1,-1.919723451E-1,-1.083149537E-1
3.474805723E0,-6.105964184E-1,-2.035787851E-1,-1.180888042E-1
3.476807089E0,-6.069312692E-1,-2.206830084E-1,-1.223648638E-1
3.478808455E0,-6.124290824E-1,-2.249590605E-1,-1.223648638E-1
3.480809788E0,-6.112073660E-1,-2.335111797E-1,-1.248083189E-1
3.482811154E0,-6.087638736E-1,-2.506153882E-1,-1.309169829E-1
3.484812454E0,-6.057095528E-1,-2.561132014E-1,-1.327495724E-1
3.486813487E0,-6.038769484E-1,-2.683305144E-1,-1.388582140E-1
3.488817587E0,-5.977683067E-1,-2.829912603E-1,-1.358038932E-1
3.490818920E0,-6.026552320E-1,-2.909325361E-1,-1.327495724E-1
3.492820253E0,-6.057095528E-1,-3.025389314E-1,-1.229757220E-1
3.494821653E0,-6.081529856E-1,-3.086476028E-1,-1.235865951E-1
3.496823019E0,-6.087638736E-1,-3.251409531E-1,-1.144236177E-1
3.498824352E0,-6.142616868E-1,-3.404125869E-1,-1.034280360E-1
3.500825752E0,-6.136507988E-1,-3.507972956E-1,-9.365420043E-2
3.502827052E0,-6.277006865E-1,-3.624037504E-1,-8.571294695E-2
3.504828385E0,-6.356419921E-1,-3.764536381E-1,-7.105217874E-2
3.506829751E0,-6.405288577E-1,-3.862274885E-1,-6.555438787E-2
3.508831084E0,-6.503027081E-1,-3.966122270E-1,-4.539583996E-2
3.510832450E0,-6.643525958E-1,-4.112729728E-1,-3.134594113E-2
3.512833783E0,-6.680178046E-1,-4.131055474E-1,-2.462642081E-2
3.514835149E0,-6.814568639E-1,-4.277663231E-1,-1.118738670E-2
3.516836182E0,-6.881763339E-1,-4.265445769E-1,-1.413542195E-3
3.518837548E0,-6.967284679E-1,-4.357075691E-1,1.507981960E-2
3.520838881E0,-7.089457512E-1,-4.363184571E-1,2.974058501E-2
3.522840214E0,-7.095566392E-1,-4.314315319E-1,3.401664272E-2
3.524841547E0,-7.284934521E-1,-4.326532483E-1,4.928827286E-2
3.526842880E0,-7.376564145E-1,-4.363184571E-1,6.272730976E-2
3.528844180E0,-7.437650561E-1,-4.393727779E-1,6.517077237E-2
3.530845546E0,-7.559823990E-1,-4.528118074E-1,7.983153313E-2
3.532846879E0,-7.706431746E-1,-4.595313072E-1,8.716192096E-2
3.534848212E0,-7.755300999E-1,-4.613639116E-1,9.632489830E-2
3.536849578E0,-7.834712863E-1,-4.693051875E-1,1.067096069E-1
3.538850911E0,-7.846930623E-1,-4.711377621E-1,1.091530696E-1
3.540852244E0,-7.901908755E-1,-4.864093959E-1,1.152617186E-1
3.542853544E0,-7.938560247E-1,-5.151200294E-1,1.189269125E-1
3.544854910E0,-7.987430096E-1,-5.303916335E-1,1.225920990E-1
3.546856276E0,-8.085168004E-1,-5.646001697E-1,1.189269125E-1
3.550856209E0,-8.176798224E-1,-6.183562875E-1,1.183160469E-1
3.552857542E0,-8.213449717E-1,-6.568408012E-1,1.140399873E-1
3.554858842E0,-8.195123672E-1,-6.941035986E-1,1.024335474E-1
3.556860142E0,-8.189014792E-1,-7.063208818E-1,9.571403265E-2
3.558861508E0,-8.164580464E-1,-7.435836792E-1,8.044239879E-2
3.560862808E0,-8.091276884E-1,-7.759595513E-1,6.150557846E-2
3.562864141E0,-8.030190468E-1,-7.893985510E-1,5.295346305E-2
3.564865474E0,-7.871365547E-1,-8.187201023E-1,3.279491141E-2
3.566866807E0,-7.840822339E-1,-8.248287439E-1,2.424279787E-2
3.568868107E0,-7.736974955E-1,-8.455981612E-1,5.305975210E-3
3.570869473E0,-7.651453614E-1,-8.578155041E-1,-1.301998179E-2
3.572870839E0,-7.565932870E-1,-8.633132577E-1,-2.096122876E-2
3.574872172E0,-7.468193769E-1,-8.584263325E-1,-3.745459020E-2
3.576873838E0,-7.339912653E-1,-8.498741984E-1,-4.906103015E-2
3.578875138E0,-7.266609073E-1,-8.431547284E-1,-5.761314556E-2
3.580876471E0,-7.211630940E-1,-8.321591020E-1,-6.983045489E-2
3.582879871E0,-7.046697140E-1,-8.211635947E-1,-8.754553646E-2
3.584881204E0,-6.985610127E-1,-8.162766099E-1,-8.998900652E-2
3.586882570E0,-6.802350879E-1,-8.022267222E-1,-1.070932299E-1
3.588883936E0,-6.759590507E-1,-7.973397970E-1,-1.107584238E-1
3.590885269E0,-6.558004618E-1,-7.765703797E-1,-1.180888042E-1
3.592886569E0,-6.478592753E-1,-7.643530965E-1,-1.248083189E-1
3.594887935E0,-6.417506337E-1,-7.582444549E-1,-1.248083189E-1
3.596889268E0,-6.362528205E-1,-7.423619628E-1,-1.199214011E-1
3.598890901E0,-6.374745369E-1,-7.252576947E-1,-1.156453416E-1
3.600892267E0,-6.344202161E-1,-7.099860907E-1,-1.101475507E-1
3.602893600E0,-6.307550073E-1,-6.831079721E-1,-1.046497673E-1
3.604894933E0,-6.246463656E-1,-6.684472561E-1,-9.793025255E-2
3.606896266E0,-6.112073660E-1,-6.592842340E-1,-9.365420043E-2
3.608897932E0,-6.069312692E-1,-6.482886672E-1,-9.243246168E-2
3.610899265E0,-5.965465903E-1,-6.379039884E-1,-8.876727521E-2
3.612900898E0,-5.910487771E-1,-6.342387795E-1,-8.510208130E-2
3.614902264E0,-5.763880014E-1,-6.311844587E-1,-8.326948434E-2
3.616903630E0,-5.702793598E-1,-6.244649887E-1,-8.265862614E-2
3.618904930E0,-5.635598302E-1,-6.183562875E-1,-8.632381260E-2
3.620906296E0,-5.446230173E-1,-5.969760418E-1,-8.632381260E-2
3.622907662E0,-5.440121293E-1,-5.798717737E-1,-8.143688738E-2
3.624909295E0,-5.293513536E-1,-5.407764316E-1,-7.349564135E-2
3.626910595E0,-5.183558464E-1,-4.986267090E-1,-6.799785793E-2
3.628911995E0,-5.134688616E-1,-4.796898663E-1,-6.494352967E-2
3.630913328E0,-5.146906376E-1,-4.320423901E-1,-4.600670561E-2
3.632914628E0,-5.195775032E-1,-4.051643014E-1,-3.684372827E-2
3.634915961E0,-5.226318836E-1,-3.874492049E-1,-3.317853436E-2
3.636917261E0,-5.342382789E-1,-3.611820042E-1,-1.668517292E-2
3.638918627E0,-5.458447337E-1,-3.660689294E-1,-9.354790673E-3
3.640919993E0,-5.568403602E-1,-3.788971007E-1,-8.743925020E-3
3.644920625E0,-5.782206059E-1,-4.473140240E-1,1.507981960E-2
3.646921958E0,-5.989900231E-1,-5.041244626E-1,2.363193408E-2
3.648924658E0,-6.032660604E-1,-5.731523037E-1,4.256875440E-2
3.650925991E0,-6.008226275E-1,-5.945325494E-1,5.051000044E-2
3.652927391E0,-5.959356427E-1,-6.311844587E-1,7.189028710E-2
3.654928724E0,-5.898270011E-1,-6.269083619E-1,9.265970439E-2
3.656930057E0,-5.776097178E-1,-6.189671755E-1,9.999009222E-2
3.658931090E0,-5.568403602E-1,-5.719305277E-1,1.225920990E-1
3.660932423E0,-5.446230173E-1,-5.432198644E-1,1.329768002E-1
3.662933789E0,-5.269079208E-1,-4.619747996E-1,1.561896950E-1
3.664935155E0,-5.073602200E-1,-3.593494296E-1,2.013937235E-1
3.666936521E0,-5.024733543E-1,-3.239192367E-1,2.258283198E-1
3.668937487E0,-5.018624663E-1,-2.823804021E-1,2.600367665E-1
3.670938820E0,-5.159123540E-1,-2.597783804E-1,2.991321683E-1
3.672939886E0,-5.293513536E-1,-2.561132014E-1,3.296754062E-1
3.674941219E0,-5.605055094E-1,-2.231264710E-1,3.974814713E-1
3.676942552E0,-6.044877768E-1,-1.644834131E-1,4.658983648E-1
3.678943918E0,-6.228137612E-1,-1.211119741E-1,5.086589456E-1
3.680945251E0,-6.405288577E-1,-6.613410264E-2,5.752432346E-1
3.682946617E0,-6.380853653E-1,-2.604118548E-3,6.259450912E-1
3.684947683E0,-6.277006865E-1,2.793914452E-2,6.491579413E-1
3.686949049E0,-6.099855900E-1,7.925182581E-2,6.583209038E-1
3.688950382E0,-5.971574187E-1,9.513432533E-2,6.467144489E-1
3.690951682E0,-5.653924346E-1,1.207906678E-1,5.734106302E-1
3.692953082E0,-5.256862044E-1,1.708816141E-1,4.658983648E-1
3.694954448E0,-5.177449584E-1,2.111987174E-1,4.054226875E-1
3.696955781E0,-5.024733543E-1,2.692309320E-1,2.918017805E-1
3.698957114E0,-4.835365117E-1,3.156566918E-1,1.824568957E-1
3.700958447E0,-4.792604446E-1,3.242087960E-1,1.317550838E-1
3.702959813E0,-4.597127438E-1,3.290956914E-1,4.501221329E-2
3.704961179E0,-4.456628561E-1,3.058828413E-1,-2.768074721E-2
3.706962545E0,-4.352781475E-1,2.906112075E-1,-6.066747382E-2
3.708962545E0,-4.200065136E-1,2.600679398E-1,-1.174779385E-1
3.710963911E0,-4.096218050E-1,2.417419702E-1,-1.394690871E-1
3.712965244E0,-3.845763206E-1,2.344115973E-1,-1.718449444E-1
3.714966577E0,-3.662503660E-1,2.545701563E-1,-1.993338764E-1
3.716967943E0,-3.570874035E-1,2.716743648E-1,-2.023882121E-1
3.718969276E0,-3.412048817E-1,3.101588786E-1,-2.103294581E-1
3.720970609E0,-3.424266279E-1,3.510868549E-1,-2.158272415E-1
3.722971975E0,-3.344853818E-1,3.645258844E-1,-2.201033086E-1
3.724973275E0,-3.277658820E-1,3.877387643E-1,-2.213250250E-1
3.726974575E0,-3.204354942E-1,4.030103981E-1,-2.194924355E-1
3.728975941E0,-3.161594272E-1,4.170603156E-1,-2.249902189E-1
3.730977941E0,-3.027203679E-1,4.335536659E-1,-2.237684876E-1
3.732979274E0,-2.929465473E-1,4.604317248E-1,-2.219358981E-1
3.734980640E0,-2.801183760E-1,4.689838588E-1,-2.176598310E-1
3.736982006E0,-2.740097046E-1,5.050249100E-1,-2.115511894E-1
3.738983339E0,-2.709553838E-1,5.209074020E-1,-1.987230182E-1
3.740984705E0,-2.679010630E-1,5.630571246E-1,-1.840622574E-1
3.742986038E0,-2.752314508E-1,6.113154292E-1,-1.596276462E-1
3.744987371E0,-2.807292044E-1,6.381935477E-1,-1.449668705E-1
3.746988737E0,-2.990551889E-1,6.901170611E-1,-1.168670729E-1
3.748990037E0,-3.167702854E-1,7.389862537E-1,-8.449121565E-2
3.750991403E0,-3.295984566E-1,7.567013502E-1,-6.921958178E-2
3.752992703E0,-3.497570157E-1,8.067923784E-1,-4.356324300E-2
3.754994036E0,-3.613634408E-1,8.361138701E-1,-2.401555702E-2
3.756995402E0,-3.717481494E-1,8.495529294E-1,-1.668517292E-2
3.758996768E0,-3.864088953E-1,8.599376082E-1,-8.743925020E-3
3.760998134E0,-3.931284547E-1,8.581050634E-1,-7.522194646E-3
3.762999500E0,-4.004588425E-1,8.428333998E-1,-6.300464272E-3
3.765000833E0,-4.047348499E-1,8.196204901E-1,-8.026768919E-4
3.767002133E0,-4.120652378E-1,8.012945652E-1,3.473379882E-3
3.769003499E0,-4.071783423E-1,7.756381631E-1,7.138571236E-3
3.771004799E0,-4.157304466E-1,7.676969767E-1,1.446895394E-2
3.773006099E0,-4.132869840E-1,7.621991634E-1,2.057760581E-2
3.775012565E0,-4.181739092E-1,7.738056183E-1,2.302106842E-2
3.777013898E0,-4.200065136E-1,7.860229015E-1,3.401664272E-2
3.779015231E0,-4.206173718E-1,7.945750356E-1,4.073616117E-2
3.781016597E0,-4.151195884E-1,8.135118484E-1,4.623394832E-2
3.783017930E0,-4.175630510E-1,8.367247581E-1,4.806654528E-2
3.785019296E0,-4.090109169E-1,8.507746458E-1,7.066855580E-2
3.787020696E0,-4.041240215E-1,8.782635331E-1,7.922067493E-2
3.789022029E0,-3.949610293E-1,8.849831223E-1,8.655105531E-2
3.791022695E0,-3.882415295E-1,8.996438384E-1,1.012118235E-1
3.793024061E0,-3.680829704E-1,9.045307636E-1,1.103747934E-1
3.795025394E0,-3.650286198E-1,9.051416516E-1,1.152617186E-1
3.797026727E0,-3.479244113E-1,8.923134804E-1,1.335876733E-1
3.799028060E0,-3.277658820E-1,8.770418167E-1,1.482484490E-1
3.801029360E0,-3.210463226E-1,8.691005707E-1,1.464158446E-1
3.803030660E0,-2.990551889E-1,8.440551162E-1,1.549679637E-1
3.805031993E0,-2.813400924E-1,8.208422065E-1,1.745156497E-1
3.807033293E0,-2.764531970E-1,8.116792440E-1,1.763482541E-1
3.809034559E0,-2.599598169E-1,7.860229015E-1,1.836786419E-1
3.811035925E0,-2.532402873E-1,7.713621259E-1,1.922307462E-1
3.813037291E0,-2.373578101E-1,7.475383878E-1,2.020045817E-1
3.815038624E0,-2.165883780E-1,7.182168365E-1,2.105567008E-1
3.817039990E0,-2.123123258E-1,7.047778368E-1,2.142218947E-1
3.819041323E0,-2.007058859E-1,6.864519119E-1,2.233848721E-1
3.821042656E0,-1.903211772E-1,6.742345691E-1,2.294935137E-1
3.823043989E0,-1.860451251E-1,6.736237407E-1,2.325478494E-1
3.825045322E0,-1.750495434E-1,6.754562855E-1,2.307152599E-1
3.827046688E0,-1.658865660E-1,6.669041514E-1,2.313261181E-1
3.829048021E0,-1.652756929E-1,6.638498306E-1,2.282717824E-1
3.831052987E0,-1.555018574E-1,6.607955098E-1,2.294935137E-1
3.833054087E0,-1.536692679E-1,6.577411890E-1,2.301043868E-1
3.837052353E0,-1.328998357E-1,6.516325474E-1,2.130001485E-1
3.839053753E0,-1.316781193E-1,6.449130177E-1,2.062806338E-1
3.841055053E0,-1.280129254E-1,6.314740181E-1,1.952850670E-1
3.843056353E0,-1.212934032E-1,6.131480932E-1,1.787917018E-1
3.845057719E0,-1.200716719E-1,5.990981460E-1,1.732939184E-1
3.847059052E0,-1.243477315E-1,5.630571246E-1,1.622983366E-1
3.849060418E0,-1.274020523E-1,5.331246853E-1,1.433615237E-1
3.851061818E0,-1.310672462E-1,5.160204172E-1,1.341985464E-1
3.853063151E0,-1.383976340E-1,4.836446345E-1,1.158725843E-1
3.855064484E0,-1.536692679E-1,4.463818371E-1,9.937922657E-2
3.857065850E0,-1.567235887E-1,4.274449944E-1,9.082710743E-2
3.859067216E0,-1.799364686E-1,3.889605105E-1,7.616634667E-2
3.861068582E0,-1.890994459E-1,3.681910634E-1,6.944682449E-2
3.863069982E0,-2.086471468E-1,3.248196542E-1,5.234259740E-2
3.865071348E0,-2.324708700E-1,2.942763865E-1,4.012529552E-2
3.867072714E0,-2.434664518E-1,2.716743648E-1,3.157318011E-2
3.869074180E0,-2.672902048E-1,2.350224555E-1,1.385808829E-2
3.871075480E0,-2.905030847E-1,1.885967106E-1,5.305975210E-3
3.873076813E0,-3.021095395E-1,1.653838158E-1,-8.026768919E-4
3.875078179E0,-3.259332478E-1,1.305644959E-1,-9.965655394E-3
3.877080212E0,-3.485352695E-1,9.635604918E-2,-2.157209627E-2
3.879081545E0,-3.662503660E-1,8.597134054E-2,-2.706988342E-2
3.881082878E0,-3.876306415E-1,5.298461765E-2,-3.134594113E-2
3.883084178E0,-3.974044919E-1,3.893471882E-2,-3.501113132E-2
3.885085511E0,-4.169521928E-1,6.558860186E-3,-4.356324300E-2
3.887086844E0,-4.352781475E-1,-1.970834471E-2,-4.478497431E-2
3.889088177E0,-4.352781475E-1,-3.497997671E-2,-4.722843692E-2
3.893088243E0,-4.523823559E-1,-9.179044515E-2,-4.111978039E-2
3.895088876E0,-4.554367065E-1,-1.070620716E-1,-4.356324300E-2
3.897090209E0,-4.584910274E-1,-1.424922645E-1,-4.234151542E-2
3.899091509E0,-4.542149603E-1,-1.730355173E-1,-4.234151542E-2
3.901092875E0,-4.627670944E-1,-1.883071661E-1,-4.050891846E-2
3.903094241E0,-4.511606395E-1,-2.396198213E-1,-4.600670561E-2
3.905095574E0,-4.468845725E-1,-2.952085435E-1,-4.722843692E-2
3.907096940E0,-4.419976473E-1,-3.196431994E-1,-4.661756754E-2
3.909098306E0,-4.358890057E-1,-3.740102053E-1,-4.417410865E-2
3.911099639E0,-4.316129386E-1,-3.990556598E-1,-3.928718716E-2
3.913100972E0,-4.200065136E-1,-4.638073742E-1,-4.050891846E-2
3.915102338E0,-4.090109169E-1,-5.310025811E-1,-3.623285890E-2
3.917103671E0,-4.059565961E-1,-5.462741852E-1,-3.501113132E-2
3.919105004E0,-4.126761258E-1,-5.633783937E-1,-3.073507361E-2
3.921106370E0,-4.102326632E-1,-5.939217210E-1,-2.951334417E-2
3.923107703E0,-4.071783423E-1,-6.055281162E-1,-3.195680305E-2
3.925109036E0,-4.065674841E-1,-6.177453995E-1,-2.768074721E-2
3.927110369E0,-4.108435512E-1,-6.201888919E-1,-2.401555702E-2
3.929111669E0,-4.065674841E-1,-6.189671755E-1,-2.279382572E-2
3.931113002E0,-4.077892005E-1,-6.006411910E-1,-1.485257689E-2
3.933114368E0,-4.077892005E-1,-5.847586393E-1,-1.057652105E-2
3.935115701E0,-4.175630510E-1,-5.627675653E-1,-1.918116759E-4
3.937116334E0,-4.236716926E-1,-5.212286711E-1,4.190535401E-4
3.939117667E0,-4.230608344E-1,-4.937397838E-1,8.360302076E-3
3.941119033E0,-4.334455431E-1,-4.338749647E-1,1.630154997E-2
3.943120399E0,-4.303911924E-1,-3.782862425E-1,1.996674202E-2
3.945121765E0,-4.334455431E-1,-3.343039453E-1,1.874501072E-2
3.947123098E0,-4.419976473E-1,-2.732174098E-1,1.507981960E-2
3.949124398E0,-4.493280351E-1,-2.133526355E-1,1.630154997E-2
3.951125764E0,-4.517715275E-1,-1.907506138E-1,1.630154997E-2
3.953126364E0,-4.481063187E-1,-1.339401454E-1,1.507981960E-2
3.955127697E0,-4.511606395E-1,-1.052294746E-1,1.507981960E-2
3.957131363E0,-4.511606395E-1,-5.452766269E-2,1.080376282E-2
3.959132696E0,-4.548258483E-1,-1.176709775E-2,7.138571236E-3
3.961133762E0,-4.560475349E-1,9.002321400E-3,5.305975210E-3
3.963135128E0,-4.597127438E-1,4.748683050E-2,1.029918785E-3
3.965136728E0,-4.621562064E-1,7.925182581E-2,-3.246137872E-3
3.967138028E0,-4.707083106E-1,1.006321087E-1,-6.911329459E-3
3.969139094E0,-4.700974822E-1,1.378948838E-1,-1.057652105E-2
3.971140360E0,-4.835365117E-1,1.733250767E-1,-1.851776801E-2
3.973141693E0,-4.884234071E-1,1.953162253E-1,-1.973949932E-2
3.975143026E0,-4.908668697E-1,2.228051573E-1,-1.546344254E-2
3.977144359E0,-5.018624663E-1,2.515158355E-1,-1.668517292E-2
3.979145725E0,-5.055276752E-1,2.655657232E-1,-1.118738670E-2
3.981147058E0,-5.159123540E-1,2.875568867E-1,-8.133059368E-3
3.983148358E0,-5.195775032E-1,2.967198491E-1,-4.467868246E-3
3.985149724E0,-5.244644880E-1,3.064936697E-1,7.138571236E-3
3.987151690E0,-5.330166221E-1,3.150458038E-1,1.507981960E-2
3.989153023E0,-5.379034877E-1,3.248196542E-1,2.424279787E-2
3.991154389E0,-5.513425469E-1,3.321500123E-1,3.279491141E-2
3.993155689E0,-5.623381138E-1,3.468107879E-1,4.623394832E-2
3.995156989E0,-5.635598302E-1,3.431456089E-1,5.478606001E-2
3.997158322E0,-5.690576434E-1,3.486433923E-1,6.394904107E-2
3.999159688E0,-5.757771730E-1,3.492542803E-1,7.799893618E-2
4.001161021E0,-5.757771730E-1,3.523086011E-1,8.594018221E-2
4.003162054E0,-5.733336806E-1,3.455890715E-1,9.999009222E-2
4.005163354E0,-5.715010762E-1,3.474216759E-1,1.024335474E-1
4.007164687E0,-5.702793598E-1,3.584172428E-1,1.122073904E-1
4.009166087E0,-5.647815466E-1,3.645258844E-1,1.225920990E-1
4.011167387E0,-5.617272258E-1,3.645258844E-1,1.250355542E-1
4.013168753E0,-5.562294126E-1,3.730779886E-1,1.274790317E-1
4.015170119E0,-5.476773977E-1,3.791866601E-1,1.329768002E-1
4.019170485E0,-5.317948461E-1,3.907930851E-1,1.396963298E-1
4.021172118E0,-5.153015256E-1,4.011777937E-1,1.445832551E-1
4.023173451E0,-5.049167871E-1,3.975126147E-1,1.433615237E-1
4.025174517E0,-4.829256237E-1,3.993452191E-1,1.433615237E-1
4.027175850E0,-4.688757360E-1,4.036212862E-1,1.390854716E-1
4.029177716E0,-4.615453482E-1,4.030103981E-1,1.256464273E-1
4.031179116E0,-4.432193935E-1,4.017886519E-1,1.067096069E-1
4.033180449E0,-4.328346848E-1,3.926256895E-1,1.018226817E-1
4.035181782E0,-4.096218050E-1,3.797975183E-1,8.349672705E-2
4.037183115E0,-3.949610293E-1,3.602498472E-1,6.333817542E-2
4.039189748E0,-3.827437162E-1,3.510868549E-1,5.173173547E-2
4.041191348E0,-3.668612242E-1,3.321500123E-1,2.790798992E-2
4.043193014E0,-3.430374861E-1,3.071045578E-1,8.360302076E-3
4.045194614E0,-3.357070982E-1,2.942763865E-1,-6.911329459E-3
4.047195347E0,-3.192137480E-1,2.759504318E-1,-2.523728833E-2
4.049196713E0,-3.002769053E-1,2.405202538E-1,-4.417410865E-2
4.051198079E0,-2.911139429E-1,2.258594781E-1,-5.944573879E-2
4.053199445E0,-2.752314508E-1,1.953162253E-1,-7.593910396E-2
4.055200811E0,-2.666793168E-1,1.824880540E-1,-8.632381260E-2
4.057202144E0,-2.575163543E-1,1.433926672E-1,-9.915198386E-2
4.059203477E0,-2.581272423E-1,1.055190265E-1,-1.138127446E-1
4.061204843E0,-2.477425039E-1,8.780393749E-2,-1.156453416E-1
4.063206509E0,-2.459099144E-1,5.909327045E-2,-1.254191846E-1
4.065207875E0,-2.428555936E-1,2.549568377E-2,-1.272517890E-1
