"Time (s)","Acceleration x (m/s^2)","Acceleration y (m/s^2)","Acceleration z (m/s^2)"
1.288013800E-1,8.758256912E0,4.094209969E-1,1.295302629E0
1.308028800E-1,8.758256912E0,4.094209969E-1,1.295302629E0
1.328042130E-1,8.758256912E0,4.094209969E-1,1.295302629E0
1.348054630E-1,9.483722687E0,3.591412306E-1,1.766974807E0
1.368068630E-1,9.577098846E0,3.447755575E-1,1.728666425E0
1.388081960E-1,9.665687561E0,3.423812985E-1,1.678386688E0
1.408094810E-1,9.720755577E0,3.280156553E-1,1.664021015E0
1.428138560E-1,9.799766541E0,3.064671755E-1,1.616135478E0
1.448151890E-1,9.876383781E0,2.801301479E-1,1.594586968E0
1.468164890E-1,9.943423271E0,2.777358890E-1,1.577827096E0
1.488178520E-1,1.003201103E1,2.681587934E-1,1.553884387E0
1.508191850E-1,1.014933109E1,2.059076279E-1,1.529941559E0
1.528226460E-1,1.019003391E1,1.963305324E-1,1.510787368E0
1.548240030E-1,1.032650757E1,1.747820675E-1,1.477267504E0
1.568253360E-1,1.037918091E1,1.532335877E-1,1.460507631E0
1.588266480E-1,1.047255802E1,1.460507661E-1,1.405439258E0
1.608280000E-1,1.059227180E1,9.816526622E-2,1.369525194E0
1.628288880E-1,1.063297462E1,5.746259540E-2,1.338399649E0
1.648303090E-1,1.073114014E1,-1.915419847E-2,1.233051538E0
1.668317590E-1,1.084606457E1,-5.985686928E-2,1.151646137E0
1.688331870E-1,1.089395046E1,-5.506832153E-2,1.089395046E0
1.708345960E-1,1.093465328E1,-5.746259540E-2,1.060663700E0
1.728360300E-1,1.105915546E1,-9.577099234E-2,9.936240315E-1
1.748374460E-1,1.111182976E1,-1.197137386E-1,9.553156495E-1
1.768388460E-1,1.121717739E1,-1.987248063E-1,8.308133483E-1
1.788402690E-1,1.117408085E1,-2.561874092E-1,7.637736797E-1
1.808413430E-1,1.129618835E1,-3.423812985E-1,6.201171875E-1
1.828427350E-1,1.160983849E1,-5.075862408E-1,5.243461728E-1
1.848441480E-1,1.174152374E1,-5.602602959E-1,5.411061049E-1
1.868455480E-1,1.184447765E1,-6.536370516E-1,5.842030644E-1
1.888469480E-1,1.197855663E1,-7.422251701E-1,6.584255695E-1
1.908483480E-1,1.205277920E1,-7.925049663E-1,6.512427330E-1
1.928497480E-1,1.218446445E1,-8.643332124E-1,6.464542150E-1
1.948511480E-1,1.229220676E1,-9.577099085E-1,5.913859010E-1
1.968525480E-1,1.235924625E1,-9.984126091E-1,5.435003638E-1
1.988539480E-1,1.249811459E1,-1.067846537E0,4.285751879E-1
2.008550480E-1,1.259867382E1,-1.118126392E0,3.591412306E-1
2.028556480E-1,1.263937664E1,-1.144463301E0,3.543526828E-1
2.048567140E-1,1.277106190E1,-1.216291547E0,2.801301479E-1
2.068581470E-1,1.284528446E1,-1.261782765E0,2.633702159E-1
2.088595470E-1,1.294584370E1,-1.328822494E0,2.083019018E-1
2.108609470E-1,1.304879761E1,-1.367130876E0,1.125309169E-1
2.128614470E-1,1.308950043E1,-1.386285067E0,7.422251999E-2
2.148628470E-1,1.309668350E1,-1.400650740E0,-7.182824425E-3
2.168642470E-1,1.310865498E1,-1.383890867E0,-4.070267081E-2
2.188656800E-1,1.312541485E1,-1.388679385E0,-5.746259540E-2
2.208670800E-1,1.307992363E1,-1.391073704E0,-7.422251999E-2
2.228686800E-1,1.299851799E1,-1.386285067E0,-1.532335877E-1
2.248700460E-1,1.296739197E1,-1.362342358E0,-2.106961906E-1
2.268713120E-1,1.281415844E1,-1.359948039E0,-2.777358890E-1
2.288772450E-1,1.262022209E1,-1.345582485E0,-3.304099143E-1
2.308785450E-1,1.252205753E1,-1.328822494E0,-3.399870098E-1
2.328798110E-1,1.231614971E1,-1.273754239E0,-3.304099143E-1
2.348810770E-1,1.221319580E1,-1.266571403E0,-3.040728867E-1
2.368825770E-1,1.200968266E1,-1.211503029E0,-2.537931204E-1
2.388838430E-1,1.182771778E1,-1.144463301E0,-1.843591630E-1
2.408854090E-1,1.176067829E1,-1.113337755E0,-1.388679445E-1
2.428864750E-1,1.160265541E1,-1.058269501E0,-6.464541703E-2
2.448878080E-1,1.145899963E1,-9.960182905E-1,-1.915419847E-2
2.468891410E-1,1.140153694E1,-9.553156495E-1,3.591412306E-2
2.488904410E-1,1.130815983E1,-8.858816624E-1,1.364736706E-1
2.508921740E-1,1.123872566E1,-8.236305118E-1,2.298503816E-1
2.528935070E-1,1.120999432E1,-7.877163887E-1,2.729473412E-1
2.548948730E-1,1.114774323E1,-7.470137477E-1,3.902668059E-1
2.568962060E-1,1.113816643E1,-6.991282701E-1,4.381522834E-1
2.588975390E-1,1.109985828E1,-6.440598965E-1,5.530774593E-1
2.608992050E-1,1.108788681E1,-5.913859010E-1,6.584255695E-1
2.629005380E-1,1.107591534E1,-5.435003638E-1,7.398309112E-1
2.649022040E-1,1.107831001E1,-4.980091453E-1,8.403904438E-1
2.669035370E-1,1.109028053E1,-4.573064744E-1,9.624984860E-1
2.689048700E-1,1.107831001E1,-4.381522834E-1,1.048692346E0
2.709062030E-1,1.109267521E1,-4.070267081E-1,1.146857619E0
2.729075360E-1,1.110943508E1,-3.759011328E-1,1.256994247E0
2.749088690E-1,1.113337803E1,-3.806896806E-1,1.280937076E0
2.769102020E-1,1.119323444E1,-3.615354896E-1,1.357553840E0
2.789115350E-1,1.120281219E1,-3.591412306E-1,1.386285067E0
2.809128680E-1,1.125309181E1,-3.663240373E-1,1.441353440E0
2.829143010E-1,1.127942848E1,-3.854782581E-1,1.496421814E0
2.849156340E-1,1.130815983E1,-3.806896806E-1,1.541913033E0
2.869170340E-1,1.132970810E1,-4.118152559E-1,1.577827096E0
2.909149670E-1,1.140632534E1,-4.261809289E-1,1.599375606E0
2.929163670E-1,1.144942188E1,-4.692778587E-1,1.575432777E0
2.949178000E-1,1.149730778E1,-4.980091453E-1,1.589798450E0
2.969190000E-1,1.152364445E1,-5.363175869E-1,1.599375606E0
2.989204000E-1,1.158589554E1,-5.842030644E-1,1.565855742E0
3.009216000E-1,1.160265541E1,-6.416656375E-1,1.565855742E0
3.029232330E-1,1.165293503E1,-7.015225291E-1,1.527547359E0
3.049245660E-1,1.172236919E1,-7.613793612E-1,1.455719113E0
3.069259320E-1,1.173673534E1,-7.853221297E-1,1.424593568E0
3.089273320E-1,1.179659176E1,-8.643332124E-1,1.338399649E0
3.109282650E-1,1.182292938E1,-8.906702399E-1,1.247417212E0
3.129296310E-1,1.182532310E1,-9.313728809E-1,1.201925993E0
3.149309640E-1,1.185405445E1,-9.624984860E-1,1.103760719E0
3.169322970E-1,1.185405445E1,-1.027143836E0,1.039115310E0
3.189336630E-1,1.186842060E1,-1.046298146E0,1.012778282E0
3.209349960E-1,1.190912247E1,-1.087000728E0,9.146129489E-1
3.229363290E-1,1.191630554E1,-1.144463301E0,8.499675393E-1
3.249376950E-1,1.190912247E1,-1.168406129E0,7.972934842E-1
3.269390280E-1,1.192588329E1,-1.204320192E0,7.326480746E-1
3.289403280E-1,1.193306541E1,-1.249811411E0,7.015225291E-1
3.309416940E-1,1.195940304E1,-1.309668303E0,6.153286099E-1
3.329430940E-1,1.200010490E1,-1.376708031E0,5.554717779E-1
3.349444270E-1,1.200249958E1,-1.403045058E0,5.075862408E-1
3.369457930E-1,1.204320240E1,-1.458113313E0,4.453351200E-1
3.389471260E-1,1.205996227E1,-1.496421814E0,3.806896806E-1
3.409484260E-1,1.206953907E1,-1.517970204E0,3.663240373E-1
3.429497590E-1,1.207672215E1,-1.553884387E0,3.256213665E-1
3.449510920E-1,1.212700176E1,-1.596981287E0,2.585816681E-1
3.469524250E-1,1.211263657E1,-1.601769805E0,2.274561077E-1
3.489587910E-1,1.212700176E1,-1.635289669E0,1.915419847E-1
3.509601240E-1,1.212221336E1,-1.652049661E0,1.747820675E-1
3.529614900E-1,1.210066509E1,-1.666415215E0,1.484450400E-1
3.549628230E-1,1.207193375E1,-1.659232497E0,1.197137386E-1
3.569638560E-1,1.205517387E1,-1.659232497E0,1.173194647E-1
3.589652220E-1,1.199531651E1,-1.625712633E0,9.098244458E-2
3.609667880E-1,1.190912247E1,-1.625712633E0,8.379961550E-2
3.629678540E-1,1.187081432E1,-1.594586968E0,7.901106775E-2
3.649692200E-1,1.180377483E1,-1.553884387E0,6.703969836E-2
3.669705530E-1,1.171758080E1,-1.477267504E0,6.464541703E-2
3.689715860E-1,1.168406105E1,-1.460507631E0,6.703969836E-2
3.709729520E-1,1.161462688E1,-1.410227895E0,7.901106775E-2
3.729742850E-1,1.153082752E1,-1.362342358E0,1.005595401E-1
3.749756180E-1,1.150927925E1,-1.324033976E0,1.125309169E-1
3.769769840E-1,1.146618176E1,-1.278542757E0,1.436564922E-1
3.789783170E-1,1.144702816E1,-1.268965602E0,1.580221355E-1
3.809796500E-1,1.140153694E1,-1.218685865E0,2.250618339E-1
3.829810160E-1,1.138238239E1,-1.209108829E0,2.992843390E-1
3.849823490E-1,1.136562252E1,-1.213897347E0,3.184385598E-1
3.869861490E-1,1.134886265E1,-1.185166001E0,4.046324492E-1
3.889875490E-1,1.132731438E1,-1.146857619E0,5.123748183E-1
3.909888820E-1,1.132013130E1,-1.149251938E0,5.602602959E-1
3.929901480E-1,1.130337143E1,-1.156434774E0,6.488484740E-1
3.949912140E-1,1.129379463E1,-1.139674783E0,7.541965842E-1
3.969925470E-1,1.129858303E1,-1.130097747E0,8.212362528E-1
3.989938800E-1,1.130815983E1,-1.120520592E0,9.026415944E-1
4.009952800E-1,1.130337143E1,-1.122914910E0,9.505270720E-1
4.029966130E-1,1.129139996E1,-1.142069101E0,1.060663700E0
4.049979130E-1,1.128661156E1,-1.139674783E0,1.120520592E0
4.069992790E-1,1.126745701E1,-1.146857619E0,1.156434774E0
4.109969780E-1,1.125309181E1,-1.175588965E0,1.309668303E0
4.129983110E-1,1.122675419E1,-1.177983165E0,1.338399649E0
4.149996440E-1,1.121717739E1,-1.189954638E0,1.419804931E0
4.170012770E-1,1.120281219E1,-1.213897347E0,1.486844659E0
4.190026100E-1,1.118844604E1,-1.228263021E0,1.534730196E0
4.210039430E-1,1.116450310E1,-1.259388566E0,1.625712633E0
4.230055760E-1,1.113577175E1,-1.307274103E0,1.656838179E0
4.250069090E-1,1.113816643E1,-1.321639657E0,1.733454943E0
4.270082420E-1,1.109985828E1,-1.352765322E0,1.817254543E0
4.290098420E-1,1.108549213E1,-1.359948039E0,1.857957244E0
4.310108420E-1,1.104239559E1,-1.386285067E0,1.941756845E0
4.330128420E-1,1.099450970E1,-1.412622094E0,1.994430900E0
4.350142080E-1,1.097056675E1,-1.412622094E0,2.008796453E0
4.370155410E-1,1.092507553E1,-1.434170604E0,2.054287672E0
4.390168740E-1,1.087719059E1,-1.462901950E0,2.071047783E0
4.410182400E-1,1.084127617E1,-1.467690468E0,2.071047783E0
4.430195730E-1,1.075987053E1,-1.472478986E0,2.056682110E0
4.450209060E-1,1.071198559E1,-1.455719113E0,2.047105074E0
4.490208050E-1,1.063536835E1,-1.417410731E0,2.039922237E0
4.510221380E-1,1.057790565E1,-1.410227895E0,2.037527800E0
4.530235040E-1,1.050128937E1,-1.398256540E0,2.051893473E0
4.550251370E-1,1.043424988E1,-1.376708031E0,2.020767927E0
4.570264700E-1,1.040073013E1,-1.347976685E0,2.004008055E0
4.590278360E-1,1.033847904E1,-1.357553840E0,1.987248063E0
4.610291690E-1,1.028341007E1,-1.324033976E0,1.941756845E0
4.630305020E-1,1.021876526E1,-1.307274103E0,1.934574008E0
4.650321680E-1,1.016369629E1,-1.268965602E0,1.903448462E0
4.670333340E-1,1.007271385E1,-1.237840056E0,1.865140080E0
4.690346670E-1,1.000088596E1,-1.225868702E0,1.802888989E0
4.710362000E-1,9.967366219E0,-1.213897347E0,1.776551962E0
4.730375330E-1,9.926663399E0,-1.185166001E0,1.752609134E0
4.750388660E-1,9.881172180E0,-1.177983165E0,1.704723716E0
4.770402320E-1,9.804554939E0,-1.106154919E0,1.656838179E0
4.790415650E-1,9.778218269E0,-1.094183564E0,1.628106833E0
4.810428980E-1,9.725543976E0,-1.031932473E0,1.601769805E0
4.830442310E-1,9.646533012E0,-9.792584181E-1,1.541913033E0
4.850455640E-1,9.610619545E0,-9.553156495E-1,1.537124395E0
4.870465970E-1,9.548367500E0,-8.930644989E-1,1.508393168E0
4.890484300E-1,9.438231468E0,-8.212362528E-1,1.460507631E0
4.910500300E-1,9.402317047E0,-7.829278708E-1,1.448536277E0
4.930503960E-1,9.311334610E0,-7.110996246E-1,1.412622094E0
4.950514290E-1,9.241900444E0,-6.584255695E-1,1.388679385E0
4.970527620E-1,9.198803902E0,-6.201171875E-1,1.367130876E0
4.990541280E-1,9.119792938E0,-5.650488734E-1,1.355159521E0
5.010554610E-1,9.067118645E0,-5.243461728E-1,1.347976685E0
5.030567940E-1,8.980924606E0,-4.692778587E-1,1.324033976E0
5.050581600E-1,8.911490440E0,-4.213923812E-1,1.319245458E0
5.070598260E-1,8.877970695E0,-3.998439014E-1,1.300091267E0
5.090611590E-1,8.806142807E0,-3.591412306E-1,1.300091267E0
5.110625250E-1,8.753468513E0,-3.328042030E-1,1.292908430E0
5.130650250E-1,8.719948769E0,-3.208328187E-1,1.300091267E0
5.150660580E-1,8.684034348E0,-2.729473412E-1,1.302485466E0
5.170670910E-1,8.655303001E0,-2.609759569E-1,1.304879785E0
5.190684240E-1,8.621783257E0,-2.466102988E-1,1.309668303E0
5.210694570E-1,8.578686714E0,-2.298503816E-1,1.343188167E0
5.230708230E-1,8.571503639E0,-1.987248063E-1,1.343188167E0
5.250716560E-1,8.528407097E0,-1.532335877E-1,1.355159521E0
5.270763220E-1,8.518829346E0,-1.340793967E-1,1.359948039E0
5.290776880E-1,8.485309601E0,-1.532335877E-1,1.383890867E0
5.310790210E-1,8.478127480E0,-1.436564922E-1,1.393467903E0
5.330803210E-1,8.444606781E0,-1.460507661E-1,1.417410731E0
5.350816870E-1,8.427846909E0,-1.412622184E-1,1.422199249E0
5.370829530E-1,8.420664787E0,-1.460507661E-1,1.455719113E0
5.390842860E-1,8.377567291E0,-1.771763414E-1,1.474873304E0
5.410856520E-1,8.365595818E0,-1.795706153E-1,1.486844659E0
5.430869850E-1,8.348835945E0,-2.011190802E-1,1.520364523E0
5.450883180E-1,8.320104599E0,-2.370332032E-1,1.546701550E0
5.470899840E-1,8.303344727E0,-2.633702159E-1,1.551490068E0
5.490908840E-1,8.296162605E0,-2.873129845E-1,1.556278586E0
5.510922840E-1,8.257853508E0,-3.064671755E-1,1.592192769E0
5.530939500E-1,8.248276711E0,-3.160442710E-1,1.587404251E0
5.550955830E-1,8.241093636E0,-3.639297783E-1,1.608952641E0
5.570965830E-1,8.229122162E0,-3.663240373E-1,1.604164124E0
5.590979160E-1,8.207573891E0,-4.094209969E-1,1.594586968E0
5.610992490E-1,8.195602417E0,-4.453351200E-1,1.599375606E0
5.631006150E-1,8.188420296E0,-4.501236677E-1,1.601769805E0
5.651019480E-1,8.150111198E0,-4.884320498E-1,1.582615614E0
5.671032810E-1,8.133351326E0,-5.291347504E-1,1.544307232E0
5.691046470E-1,8.135746002E0,-5.626545548E-1,1.529941559E0
5.711059800E-1,8.102226257E0,-5.937801600E-1,1.525153041E0
5.731061460E-1,8.102226257E0,-6.105400920E-1,1.510787368E0
5.751078120E-1,8.063917160E0,-6.440598965E-1,1.448536277E0
5.771094780E-1,8.037580490E0,-6.488484740E-1,1.403045058E0
5.791107440E-1,8.018425941E0,-6.512427330E-1,1.369525194E0
5.811124100E-1,7.965752125E0,-6.727912426E-1,1.321639657E0
5.831137430E-1,7.929838181E0,-6.871568561E-1,1.259388566E0
5.851153090E-1,7.891529560E0,-6.991282701E-1,1.237840056E0
5.891148420E-1,7.798152924E0,-6.967339516E-1,1.154040456E0
5.911161750E-1,7.769421577E0,-7.230709791E-1,1.137280583E0
5.931175750E-1,7.731113434E0,-6.991282701E-1,1.096577883E0
5.951189080E-1,7.714353561E0,-6.799740195E-1,1.082212210E0
5.971207080E-1,7.673650742E0,-6.727912426E-1,1.034326673E0
5.991220740E-1,7.606611252E0,-6.368771195E-1,9.960182905E-1
6.011230740E-1,7.575485706E0,-6.320885420E-1,9.744698405E-1
6.031244740E-1,7.513234138E0,-6.201171875E-1,9.337671995E-1
6.051258400E-1,7.458166122E0,-5.865973234E-1,8.978530765E-1
6.071271730E-1,7.436617374E0,-5.818088055E-1,8.763045669E-1
6.091285060E-1,7.381549358E0,-5.482889414E-1,8.595446348E-1
6.111298720E-1,7.338452339E0,-5.171633363E-1,8.379961848E-1
6.131312050E-1,7.307326794E0,-5.027977228E-1,8.403904438E-1
6.151324710E-1,7.259441376E0,-4.501236677E-1,8.403904438E-1
6.171341710E-1,7.204372883E0,-4.213923812E-1,8.284190893E-1
6.191355040E-1,7.182824612E0,-3.998439014E-1,8.403904438E-1
6.211368370E-1,7.125361919E0,-3.615354896E-1,8.547561169E-1
6.231381700E-1,7.103813171E0,-3.615354896E-1,8.619389534E-1
6.251395030E-1,7.075081825E0,-3.040728867E-1,8.643332124E-1
6.271408360E-1,7.024802208E0,-2.585816681E-1,8.834874034E-1
6.291421690E-1,7.010436535E0,-2.490045726E-1,8.906702399E-1
6.311435020E-1,6.979310989E0,-2.011190802E-1,9.050358534E-1
6.331448680E-1,6.945791245E0,-1.675992310E-1,9.409499764E-1
6.351517680E-1,6.929031372E0,-1.652049571E-1,9.457385540E-1
6.371530010E-1,6.943397045E0,-1.221080124E-1,9.768640995E-1
6.391544340E-1,6.905088425E0,-8.140534163E-2,9.744698405E-1
6.411557670E-1,6.893116951E0,-6.703969836E-2,9.936240315E-1
6.431571000E-1,6.902694225E0,-4.309694469E-2,1.010383964E0
6.451584660E-1,6.917059898E0,-9.577099234E-3,1.041509509E0
6.471597990E-1,6.919454098E0,0.000000000E0,1.039115310E0
6.491611320E-1,6.945791245E0,2.633702382E-2,1.067846537E0
6.511624980E-1,6.929031372E0,4.070267081E-2,1.077423692E0
6.531638310E-1,6.952973843E0,3.830839694E-2,1.096577883E0
6.551651640E-1,6.981705189E0,4.788549617E-2,1.108549237E0
6.571661300E-1,7.003253937E0,4.788549617E-2,1.106154919E0
6.591674630E-1,7.031985283E0,5.267404765E-2,1.151646137E0
6.611691290E-1,7.106207848E0,3.830839694E-2,1.163617611E0
6.631704290E-1,7.139727592E0,3.830839694E-2,1.166011810E0
6.651717620E-1,7.201978683E0,3.591412306E-2,1.194743156E0
6.671730950E-1,7.259441376E0,4.309694469E-2,1.209108829E0
6.691741610E-1,7.295355320E0,3.112557158E-2,1.221080184E0
6.711754940E-1,7.362394810E0,-7.182824425E-3,1.235445857E0
6.731768270E-1,7.422251701E0,-3.830839694E-2,1.249811411E0
6.751782600E-1,7.498868465E0,-8.140534163E-2,1.268965602E0
6.771795930E-1,7.594639778E0,-1.149251908E-1,1.280937076E0
6.791809260E-1,7.635342598E0,-1.292908341E-1,1.292908430E0
6.811822920E-1,7.728719234E0,-2.035133541E-1,1.328822494E0
6.831836250E-1,7.795758724E0,-2.825244367E-1,1.336005330E0
6.851849580E-1,7.831672668E0,-3.256213665E-1,1.343188167E0
6.871863240E-1,7.920260906E0,-3.998439014E-1,1.359948039E0
6.891876570E-1,7.996877670E0,-4.836435020E-1,1.391073704E0
6.911889900E-1,8.042368889E0,-5.291347504E-1,1.415016413E0
6.931903230E-1,8.116591454E0,-5.889915824E-1,1.419804931E0
6.971875220E-1,8.214756966E0,-7.039167881E-1,1.429382086E0
6.991888550E-1,8.267431259E0,-7.877163887E-1,1.434170604E0
7.011929210E-1,8.293767929E0,-8.691217303E-1,1.422199249E0
7.031942870E-1,8.348835945E0,-9.170072675E-1,1.398256540E0
7.051955530E-1,8.387145042E0,-9.792584181E-1,1.398256540E0
7.071968860E-1,8.389538765E0,-1.007989645E0,1.386285067E0
7.091982520E-1,8.437424660E0,-1.103760719E0,1.357553840E0
7.112040850E-1,8.447001457E0,-1.154040456E0,1.350371003E0
7.132054180E-1,8.437424660E0,-1.173194647E0,1.350371003E0
7.152067840E-1,8.418270111E0,-1.213897347E0,1.331216812E0
7.172081170E-1,8.408693314E0,-1.233051538E0,1.312062621E0
7.192094500E-1,8.403904915E0,-1.254600048E0,1.307274103E0
7.212108160E-1,8.377567291E0,-1.256994247E0,1.256994247E0
7.232121490E-1,8.341653824E0,-1.240234375E0,1.249811411E0
7.252134820E-1,8.308133125E0,-1.221080184E0,1.218685865E0
7.272148480E-1,8.274613380E0,-1.189954638E0,1.177983165E0
7.292161810E-1,8.260248184E0,-1.173194647E0,1.151646137E0
7.312175140E-1,8.226728439E0,-1.130097747E0,1.130097747E0
7.332188800E-1,8.174054146E0,-1.082212210E0,1.101366401E0
7.352250800E-1,8.150111198E0,-1.079817891E0,1.082212210E0
7.372264130E-1,8.111803055E0,-1.015172482E0,1.034326673E0
7.392277790E-1,8.071100235E0,-9.816526771E-1,1.012778282E0
7.412291120E-1,8.049551964E0,-9.481328130E-1,9.792584181E-1
7.432304450E-1,8.025609016E0,-8.978530765E-1,9.505270720E-1
7.452318780E-1,8.013637543E0,-9.050358534E-1,9.433442950E-1
7.472332110E-1,8.018425941E0,-8.906702399E-1,9.289786220E-1
7.492344440E-1,7.999272346E0,-8.379961848E-1,8.930644989E-1
7.512358100E-1,7.992089272E0,-8.140534163E-1,8.786988258E-1
7.532371430E-1,7.987300873E0,-7.901107073E-1,8.547561169E-1
7.552425090E-1,7.960963726E0,-7.685621977E-1,8.427847624E-1
7.572438750E-1,7.958569527E0,-7.613793612E-1,8.619389534E-1
7.592452080E-1,7.992089272E0,-7.446194887E-1,8.547561169E-1
7.632451410E-1,8.025609016E0,-7.278595567E-1,8.595446348E-1
7.652465410E-1,8.028003693E0,-7.039167881E-1,8.571503758E-1
7.672478740E-1,8.044763565E0,-6.823683381E-1,8.595446348E-1
7.692495740E-1,8.087860107E0,-6.440598965E-1,8.523618579E-1
7.732477730E-1,8.126168251E0,-6.368771195E-1,8.547561169E-1
7.752491060E-1,8.174054146E0,-6.057515144E-1,8.595446348E-1
7.772504390E-1,8.238699913E0,-5.865973234E-1,8.858816624E-1
7.792518050E-1,8.267431259E0,-5.794144869E-1,8.858816624E-1
7.812531380E-1,8.327287674E0,-5.363175869E-1,8.858816624E-1
7.832541710E-1,8.408693314E0,-5.123748183E-1,8.906702399E-1
7.852555370E-1,8.442213058E0,-5.099805593E-1,9.146129489E-1
7.872568700E-1,8.504464149E0,-4.740664065E-1,9.170072675E-1
7.892585030E-1,8.566715240E0,-4.429408312E-1,9.648927450E-1
7.912598690E-1,8.597841263E0,-4.118152559E-1,9.601042271E-1
7.932614690E-1,8.660092354E0,-3.711125851E-1,9.840469360E-1
7.972593010E-1,8.765439987E0,-3.375927508E-1,1.005595446E0
7.992608340E-1,8.818114281E0,-3.184385598E-1,1.051086664E0
8.012621670E-1,8.858817101E0,-2.681587934E-1,1.070240855E0
8.032646670E-1,8.925856590E0,-2.561874092E-1,1.091789365E0
8.052658670E-1,9.002472878E0,-2.322446555E-1,1.132491946E0
8.072672000E-1,9.031204224E0,-2.226675600E-1,1.142069101E0
8.092686660E-1,9.105426788E0,-2.083019018E-1,1.173194647E0
8.112699990E-1,9.172467232E0,-1.915419847E-1,1.221080184E0
8.132713320E-1,9.194015503E0,-1.963305324E-1,1.233051538E0
8.172699980E-1,9.273026466E0,-1.795706153E-1,1.290514112E0
8.192713310E-1,9.337671280E0,-2.035133541E-1,1.331216812E0
8.212723640E-1,9.356825829E0,-2.346389294E-1,1.412622094E0
8.232736970E-1,9.368797302E0,-2.346389294E-1,1.426987767E0
8.252750300E-1,9.397528648E0,-2.801301479E-1,1.474873304E0
8.272763960E-1,9.419076920E0,-3.136500120E-1,1.537124395E0
8.292773620E-1,9.433443069E0,-3.399870098E-1,1.599375606E0
8.312786950E-1,9.431048393E0,-3.759011328E-1,1.632895470E0
8.332831280E-1,9.428654671E0,-4.309694767E-1,1.687963724E0
8.352844610E-1,9.447808266E0,-4.597007632E-1,1.721483588E0
8.372857940E-1,9.419076920E0,-5.243461728E-1,1.783734679E0
8.392869940E-1,9.380768776E0,-6.009629965E-1,1.831620216E0
8.412882600E-1,9.368797302E0,-6.129343510E-1,1.881899953E0
8.432899260E-1,9.323306084E0,-6.847625971E-1,1.951334000E0
8.452912590E-1,9.294574738E0,-6.967339516E-1,1.968093872E0
8.472925920E-1,9.275420189E0,-7.661679387E-1,2.004008055E0
8.492939580E-1,9.237112045E0,-8.332076073E-1,2.056682110E0
8.512952910E-1,9.208380699E0,-8.643332124E-1,2.078230619E0
8.532962910E-1,9.143735886E0,-9.289786220E-1,2.061470509E0
8.552972910E-1,9.091061592E0,-9.744698405E-1,2.054287672E0
8.572986240E-1,9.071907043E0,-9.984126091E-1,2.044710636E0
8.592997570E-1,9.021627426E0,-1.065452337E0,2.008796453E0
8.613011230E-1,8.954587936E0,-1.120520592E0,1.956122518E0
8.633013230E-1,8.918673515E0,-1.139674783E0,1.924996972E0
8.653034230E-1,8.861210823E0,-1.199531674E0,1.860351562E0
8.673047890E-1,8.830085754E0,-1.228263021E0,1.843591571E0
8.693068220E-1,8.758256912E0,-1.264177084E0,1.790917516E0
8.713081550E-1,8.698400497E0,-1.336005330E0,1.743032098E0
8.733095210E-1,8.662486076E0,-1.350371003E0,1.716695070E0
8.753108540E-1,8.578686714E0,-1.431776285E0,1.680780888E0
8.773121870E-1,8.482915878E0,-1.491633177E0,1.632895470E0
8.793135530E-1,8.423058510E0,-1.539518714E0,1.618529797E0
8.813152190E-1,8.348835945E0,-1.587404251E0,1.594586968E0
8.833165520E-1,8.248276711E0,-1.647261024E0,1.577827096E0
8.853179180E-1,8.202785492E0,-1.666415215E0,1.587404251E0
8.873192510E-1,8.097437859E0,-1.733454943E0,1.553884387E0
8.893205840E-1,7.982511997E0,-1.793311834E0,1.534730196E0
8.913216170E-1,7.939415455E0,-1.812466025E0,1.517970204E0
8.953211830E-1,7.778998852E0,-1.893871427E0,1.503604531E0
8.973225490E-1,7.671256542E0,-1.908236980E0,1.501210332E0
8.993240150E-1,7.558725357E0,-1.932179809E0,1.496421814E0
9.013261480E-1,7.506051540E0,-1.941756845E0,1.498816013E0
9.033274810E-1,7.400703430E0,-1.963305354E0,1.508393168E0
9.053288140E-1,7.292961121E0,-1.987248063E0,1.544307232E0
9.073301470E-1,7.242681503E0,-2.004008055E0,1.529941559E0
9.093314800E-1,7.130150318E0,-1.994430900E0,1.549095750E0
9.113328130E-1,7.024802208E0,-1.984853864E0,1.558672905E0
9.133342460E-1,6.988888264E0,-1.975276709E0,1.551490068E0
9.153359460E-1,6.924242973E0,-1.932179809E0,1.544307232E0
9.173372790E-1,6.878751755E0,-1.920208454E0,1.532335877E0
9.193431120E-1,6.826077461E0,-1.857957244E0,1.508393168E0
9.213483780E-1,6.785374641E0,-1.822043180E0,1.474873304E0
9.233497110E-1,6.792557716E0,-1.810071707E0,1.448536277E0
9.253503110E-1,6.766220570E0,-1.771763325E0,1.415016413E0
9.273515770E-1,6.763826370E0,-1.766974807E0,1.388679385E0
9.293521430E-1,6.768614769E0,-1.762186289E0,1.391073704E0
9.313534430E-1,6.821289062E0,-1.709512234E0,1.424593568E0
9.333547760E-1,6.909877300E0,-1.697540879E0,1.477267504E0
9.353561090E-1,6.967339516E0,-1.685569525E0,1.525153041E0
9.373577420E-1,7.122967720E0,-1.649655342E0,1.616135478E0
9.393590750E-1,7.199584484E0,-1.611346960E0,1.671203852E0
9.413625080E-1,7.410280704E0,-1.577827096E0,1.764580488E0
9.433638740E-1,7.671256542E0,-1.563461423E0,1.857957244E0
9.453652070E-1,7.812518597E0,-1.558672905E0,1.910631299E0
9.473665400E-1,8.114197731E0,-1.532335877E0,2.001613855E0
9.493679060E-1,8.482915878E0,-1.503604531E0,2.066259146E0
9.513695720E-1,8.688823700E0,-1.496421814E0,2.083019018E0
9.533709050E-1,9.105426788E0,-1.486844659E0,2.130904675E0
9.553722710E-1,9.524425507E0,-1.460507631E0,2.162030220E0
9.573736040E-1,9.754275322E0,-1.446141958E0,2.159635782E0
9.593749370E-1,1.014454269E1,-1.369525194E0,2.152452946E0
9.613755700E-1,1.036002731E1,-1.216291547E0,2.162030220E0
9.633769030E-1,1.067367744E1,-1.259388566E0,2.157241583E0
9.653782360E-1,1.143505669E1,-1.362342358E0,2.164424419E0
9.673796020E-1,1.177743816E1,-1.376708031E0,2.171607256E0
9.693809350E-1,1.233530426E1,-1.343188167E0,2.157241583E0
9.713822680E-1,1.289556408E1,-1.295302629E0,2.147664547E0
9.733836010E-1,1.319005966E1,-1.264177084E0,2.162030220E0
9.753849340E-1,1.374074268E1,-1.122914910E0,2.233858347E0
9.773862670E-1,1.427227211E1,-9.696813226E-1,2.360754967E0
9.813805330E-1,1.513899994E1,-6.656084061E-1,2.456526041E0
9.833818660E-1,1.571841431E1,-4.405465722E-1,2.499622822E0
9.853832660E-1,1.605121803E1,-3.519583941E-1,2.509200096E0
9.873846660E-1,1.671203804E1,-1.675992310E-1,2.434977531E0
9.893860990E-1,1.699695778E1,2.873129770E-2,2.367937803E0
9.913874990E-1,1.751412010E1,1.053480953E-1,2.267378330E0
9.933888320E-1,1.794030190E1,3.208328187E-1,2.121327400E0
9.953901980E-1,1.813902664E1,3.926610649E-1,2.027950764E0
9.973912640E-1,1.846704102E1,5.650488734E-1,1.788523316E0
9.993925970E-1,1.862985229E1,7.565908432E-1,1.496421814E0
1.003393196E0,1.831141281E1,1.144463301E0,1.017566800E0
1.005394529E0,1.765298843E1,1.319245458E0,6.129343510E-1
1.007395895E0,1.724356651E1,1.367130876E0,4.094209969E-1
1.009397928E0,1.642951393E1,1.393467903E0,4.549122229E-2
1.011399261E0,1.558194065E1,1.386285067E0,-7.422251999E-2
1.013400627E0,1.516533661E1,1.369525194E0,-2.633702159E-1
1.015401960E0,1.444226551E1,1.338399649E0,-3.567469418E-1
1.017403993E0,1.409749031E1,1.304879785E0,-3.663240373E-1
1.019405359E0,1.347258472E1,1.211503029E0,-3.375927508E-1
1.021406692E0,1.289556408E1,1.122914910E0,-2.705530524E-1
1.023407692E0,1.263698196E1,1.072635174E0,-2.346389294E-1
1.025409058E0,1.216770458E1,9.553156495E-1,-1.125309169E-1
1.027410391E0,1.175110054E1,8.044763207E-1,-1.436564885E-2
1.029411724E0,1.155716419E1,7.637736797E-1,6.225114316E-2
1.031413090E0,1.117408085E1,6.416656375E-1,2.178790122E-1
1.033414423E0,1.086761379E1,4.980091453E-1,3.878725171E-1
1.035418289E0,1.070719719E1,4.381522834E-1,4.740664065E-1
1.037419655E0,1.041270161E1,3.088614643E-1,6.632141471E-1
1.039420988E0,1.027383327E1,2.442160249E-1,7.494080067E-1
1.041422321E0,1.002004051E1,9.816526622E-2,9.409499764E-1
1.043423687E0,9.833286285E0,-3.351984918E-2,1.161223292E0
1.045425020E0,9.744698524E0,-1.053480953E-1,1.264177084E0
1.047426353E0,9.658504486E0,-2.585816681E-1,1.494027495E0
1.049427686E0,9.641744614E0,-4.022381604E-1,1.743032098E0
1.051429019E0,9.660899162E0,-4.764606953E-1,1.877111435E0
1.053431019E0,9.780612946E0,-6.368771195E-1,2.114144564E0
1.055432352E0,9.976943016E0,-7.661679387E-1,2.346389294E0
1.057433685E0,1.010623360E1,-8.379961848E-1,2.427794695E0
1.059435051E0,1.042946148E1,-9.457385540E-1,2.614548206E0
1.061436384E0,1.058748341E1,-1.003201127E0,2.700742006E0
1.063437717E0,1.097774982E1,-1.015172482E0,2.834821463E0
1.065439083E0,1.141829681E1,-1.029538155E0,2.906649590E0
1.067440416E0,1.166011810E1,-1.027143836E0,2.937775135E0
1.069441049E0,1.216052151E1,-9.864411950E-1,2.976083517E0
1.071442415E0,1.270641613E1,-9.529213905E-1,2.964112282E0
1.073443748E0,1.296260357E1,-9.313728809E-1,2.944957972E0
1.075445081E0,1.352286434E1,-8.858816624E-1,2.911438227E0
1.077445681E0,1.403763294E1,-8.068706393E-1,2.839609861E0
1.079447014E0,1.427706051E1,-7.446194887E-1,2.803695917E0
1.081448347E0,1.473676109E1,-6.225114465E-1,2.746233225E0
1.083450047E0,1.514618206E1,-4.956148863E-1,2.669616461E0
1.085451380E0,1.537363815E1,-4.118152559E-1,2.633702278E0
1.087452713E0,1.574953938E1,-2.729473412E-1,2.525959969E0
1.089454079E0,1.591235065E1,-2.083019018E-1,2.458920240E0
1.091455412E0,1.618529701E1,-6.464541703E-2,2.334417820E0
1.093456745E0,1.635768509E1,8.379961550E-2,2.193155766E0
1.097459044E0,1.642712021E1,3.328042030E-1,1.946545362E0
1.099460544E0,1.635050201E1,4.668835998E-1,1.762186289E0
1.101468644E0,1.627867508E1,5.291347504E-1,1.668809533E0
1.103469977E0,1.610149765E1,6.703969240E-1,1.491633177E0
1.105471310E0,1.589319611E1,7.805336118E-1,1.292908430E0
1.107472676E0,1.576629925E1,8.499675393E-1,1.213897347E0
1.109474009E0,1.550532341E1,9.505270720E-1,1.053480864E0
1.111475342E0,1.537603283E1,9.792584181E-1,9.816526771E-1
1.113476042E0,1.508153725E1,1.048692346E0,8.308133483E-1
1.115477375E0,1.479183006E1,1.089395046E0,7.134938836E-1
1.117478708E0,1.469126987E1,1.098972082E0,6.584255695E-1
1.119480041E0,1.438480282E1,1.139674783E0,5.746259689E-1
1.121481641E0,1.409509563E1,1.154040456E0,4.860377908E-1
1.123482974E0,1.396819878E1,1.151646137E0,4.525179267E-1
1.125485007E0,1.370961761E1,1.125309110E0,3.878725171E-1
1.127486340E0,1.344864178E1,1.134886265E0,3.591412306E-1
1.129487706E0,1.319963741E1,1.098972082E0,3.375927508E-1
1.131489039E0,1.308471203E1,1.075029373E0,3.351984620E-1
1.133490372E0,1.284767818E1,1.034326673E0,3.495641351E-1
1.135491738E0,1.273754215E1,1.024749637E0,3.687183261E-1
1.137493138E0,1.254360580E1,9.553156495E-1,4.261809289E-1
1.139494471E0,1.246459484E1,9.170072675E-1,4.620950520E-1
1.141495771E0,1.229938984E1,8.667274714E-1,5.435003638E-1
1.143497104E0,1.213418484E1,8.212362528E-1,6.440598965E-1
1.145498437E0,1.207193375E1,7.901107073E-1,7.039167881E-1
1.147499803E0,1.194982529E1,7.470137477E-1,8.356019258E-1
1.149501136E0,1.184926605E1,7.422251701E-1,9.840469360E-1
1.151502469E0,1.182292938E1,7.158881426E-1,1.058269501E0
1.153503835E0,1.177025509E1,6.847625971E-1,1.209108829E0
1.155505868E0,1.171518707E1,6.703969240E-1,1.381496549E0
1.159506468E0,1.167687798E1,6.488484740E-1,1.630501151E0
1.163502067E0,1.168166637E1,6.608198285E-1,1.865140080E0
1.165503433E0,1.169363785E1,6.727912426E-1,2.030344963E0
1.167504766E0,1.168166637E1,6.775797606E-1,2.121327400E0
1.169506099E0,1.166969585E1,6.991282701E-1,2.276955366E0
1.171507465E0,1.169842625E1,7.206767201E-1,2.411034822E0
1.173508798E0,1.170321560E1,7.254652381E-1,2.492439985E0
1.175510131E0,1.171039772E1,7.206767201E-1,2.621730804E0
1.177511497E0,1.171279240E1,7.326480746E-1,2.707924843E0
1.179513330E0,1.171518707E1,7.637736797E-1,2.751021862E0
1.181514396E0,1.168884945E1,7.709565163E-1,2.825244188E0
1.183515762E0,1.166730118E1,8.020820618E-1,2.856369734E0
1.185516395E0,1.166251278E1,7.757450342E-1,2.861158371E0
1.187517728E0,1.160026169E1,7.613793612E-1,2.882706881E0
1.189519061E0,1.157153034E1,7.446194887E-1,2.853975534E0
1.191520394E0,1.155237579E1,7.134938836E-1,2.846792698E0
1.193521927E0,1.152125072E1,7.063110471E-1,2.818061352E0
1.195523260E0,1.149730778E1,6.775797606E-1,2.798907280E0
1.197524593E0,1.141350842E1,6.201171875E-1,2.751021862E0
1.199525959E0,1.128661156E1,6.153286099E-1,2.679193497E0
1.201527359E0,1.120281219E1,6.081457734E-1,2.652856588E0
1.203528692E0,1.108309841E1,5.865973234E-1,2.581028223E0
1.205530058E0,1.095859623E1,5.506832004E-1,2.485257149E0
1.207531391E0,1.088437366E1,5.315290093E-1,2.437371731E0
1.209532724E0,1.076226521E1,4.932205975E-1,2.358360767E0
1.211534090E0,1.071198559E1,4.549122155E-1,2.296109438E0
1.213535423E0,1.057311726E1,4.333637357E-1,2.188367128E0
1.215536056E0,1.045819283E1,4.166038036E-1,2.068653345E0
1.217537422E0,1.041270161E1,3.974496126E-1,2.025556564E0
1.219538555E0,1.029059315E1,3.543526828E-1,1.934574008E0
1.221540221E0,1.016369629E1,3.375927508E-1,1.841197371E0
1.223541587E0,1.011341667E1,3.304099143E-1,1.805283189E0
1.225542920E0,1.002961731E1,3.328042030E-1,1.733454943E0
1.227543953E0,9.897932053E0,3.184385598E-1,1.635289669E0
1.229545319E0,9.838075638E0,3.160442710E-1,1.618529797E0
1.231546652E0,9.670475960E0,3.351984620E-1,1.570644259E0
1.233547985E0,9.617801666E0,3.351984620E-1,1.532335877E0
1.235549351E0,9.498087883E0,3.304099143E-1,1.486844659E0
1.237550617E0,9.411893845E0,3.064671755E-1,1.448536277E0
1.239551450E0,9.349642754E0,3.351984620E-1,1.429382086E0
1.241552816E0,9.222746849E0,3.304099143E-1,1.391073704E0
1.243554149E0,9.126976013E0,3.471698463E-1,1.364736676E0
1.245555482E0,9.050358772E0,3.735068738E-1,1.352765322E0
1.247556782E0,8.909096718E0,4.046324492E-1,1.324033976E0
1.249558115E0,8.763046265E0,4.261809289E-1,1.283331275E0
1.251559448E0,8.688823700E0,4.549122155E-1,1.273754239E0
1.253560614E0,8.605023384E0,4.692778587E-1,1.271359921E0
1.255561947E0,8.478127480E0,4.788549542E-1,1.259388566E0
1.257563280E0,8.439818382E0,4.836435020E-1,1.252205729E0
1.259564613E0,8.348835945E0,5.099805593E-1,1.254600048E0
1.261565946E0,8.288979530E0,5.482889414E-1,1.249811411E0
1.263567279E0,8.154899597E0,5.698373914E-1,1.225868702E0
1.265568612E0,8.001666069E0,6.009629965E-1,1.211503029E0
1.267569945E0,7.951386452E0,6.273000240E-1,1.230657220E0
1.269571245E0,7.855615616E0,6.512427330E-1,1.235445857E0
1.271572578E0,7.757450581E0,6.895511150E-1,1.245022893E0
1.273573911E0,7.692804813E0,6.847625971E-1,1.245022893E0
1.275575277E0,7.580274105E0,7.518022656E-1,1.268965602E0
1.277576610E0,7.472531796E0,7.805336118E-1,1.285725594E0
1.279577943E0,7.412674904E0,7.996878028E-1,1.292908430E0
1.281579309E0,7.336058140E0,8.068706393E-1,1.297696948E0
1.283580642E0,7.271412373E0,8.116591573E-1,1.300091267E0
1.285581975E0,7.178035736E0,8.308133483E-1,1.297696948E0
1.287583641E0,7.115784645E0,8.212362528E-1,1.307274103E0
1.289584974E0,7.087053299E0,8.284190893E-1,1.326428294E0
1.291586307E0,7.046350956E0,8.188419938E-1,1.328822494E0
1.293587673E0,7.031985283E0,8.212362528E-1,1.343188167E0
1.295589006E0,6.998465061E0,8.212362528E-1,1.345582485E0
1.297590406E0,6.948185444E0,8.116591573E-1,1.355159521E0
1.299591772E0,6.917059898E0,8.212362528E-1,1.343188167E0
1.301593038E0,6.893116951E0,8.020820618E-1,1.345582485E0
1.303594371E0,6.895511627E0,7.781392932E-1,1.367130876E0
1.305595737E0,6.897905827E0,7.422251701E-1,1.367130876E0
1.307597137E0,6.890722752E0,7.063110471E-1,1.383890867E0
1.309598470E0,6.897905827E0,6.919454336E-1,1.410227895E0
1.311599836E0,6.921848297E0,6.823683381E-1,1.410227895E0
1.313601169E0,6.907482624E0,6.751855016E-1,1.436564922E0
1.315602502E0,6.907482624E0,6.416656375E-1,1.431776285E0
1.317603868E0,6.893116951E0,6.368771195E-1,1.419804931E0
1.319604901E0,6.859597206E0,6.368771195E-1,1.450930476E0
1.321606234E0,6.838048935E0,5.889915824E-1,1.458113313E0
1.323607600E0,6.840443134E0,5.770202279E-1,1.462901950E0
1.325608933E0,6.861991405E0,5.219519138E-1,1.474873304E0
1.327610266E0,6.842837334E0,5.123748183E-1,1.482056141E0
1.329611666E0,6.852414608E0,5.075862408E-1,1.479661822E0
1.331612999E0,6.857203007E0,4.788549542E-1,1.503604531E0
1.333614332E0,6.845231533E0,4.668835998E-1,1.505998850E0
1.335617465E0,6.830865860E0,4.381522834E-1,1.513181686E0
1.337618798E0,6.864386082E0,3.950553536E-1,1.534730196E0
1.339619998E0,6.859597206E0,3.567469418E-1,1.539518714E0
1.341621331E0,6.847625732E0,3.016786277E-1,1.539518714E0
1.343622364E0,6.876357079E0,2.346389294E-1,1.561067224E0
1.345623664E0,6.864386082E0,2.250618339E-1,1.575432777E0
1.347624997E0,6.888328552E0,2.083019018E-1,1.592192769E0
1.349626330E0,6.917059898E0,1.364736706E-1,1.604164124E0
1.351627696E0,6.938608170E0,1.125309169E-1,1.601769805E0
1.353629029E0,6.945791245E0,8.379961550E-2,1.632895470E0
1.355636162E0,6.964945316E0,5.746259540E-2,1.635289669E0
1.357637528E0,6.962551117E0,5.267404765E-2,1.642472506E0
1.359638861E0,6.969734192E0,4.309694469E-2,1.628106833E0
1.361640261E0,6.981705189E0,4.070267081E-2,1.628106833E0
1.363641727E0,6.972128391E0,4.070267081E-2,1.616135478E0
1.365643060E0,6.984099388E0,4.788549617E-2,1.601769805E0
1.367644393E0,6.988888264E0,4.788549617E-2,1.601769805E0
1.369645693E0,7.000859737E0,5.506832153E-2,1.585009933E0
1.371647026E0,7.017619610E0,6.703969836E-2,1.565855742E0
1.373648192E0,7.020013809E0,7.901106775E-2,1.573038578E0
1.375649492E0,7.012830734E0,1.316851079E-1,1.577827096E0
1.377650825E0,7.010436535E0,1.508393139E-1,1.558672905E0
1.379652458E0,7.010436535E0,1.628106833E-1,1.558672905E0
1.381654258E0,7.017619610E0,1.819648892E-1,1.505998850E0
1.383655591E0,7.015225410E0,1.891477108E-1,1.525153041E0
1.385656924E0,7.012830734E0,2.370332032E-1,1.505998850E0
1.387658290E0,6.998465061E0,2.657645047E-1,1.465296149E0
1.389659323E0,6.976916790E0,2.729473412E-1,1.460507631E0
1.391660656E0,6.945791245E0,3.351984620E-1,1.460507631E0
1.393662022E0,6.912271500E0,3.998439014E-1,1.424593568E0
1.397662988E0,6.857203007E0,4.501236677E-1,1.407833576E0
1.399664488E0,6.816500187E0,4.501236677E-1,1.386285067E0
1.401665821E0,6.814105988E0,4.668835998E-1,1.374313712E0
1.403667454E0,6.792557716E0,4.932205975E-1,1.362342358E0
1.405668854E0,6.759037971E0,5.075862408E-1,1.347976685E0
1.407670187E0,6.708757877E0,5.099805593E-1,1.316851139E0
1.409671553E0,6.672843933E0,5.267404318E-1,1.283331275E0
1.411672886E0,6.660872459E0,5.458946824E-1,1.273754239E0
1.413674219E0,6.620169640E0,5.243461728E-1,1.252205729E0
1.417671118E0,6.586649895E0,4.788549542E-1,1.197137356E0
1.419672451E0,6.555524349E0,4.620950520E-1,1.192348838E0
1.421673817E0,6.495667458E0,4.333637357E-1,1.194743156E0
1.423675050E0,6.483695984E0,4.285751879E-1,1.180377483E0
1.425676383E0,6.459753513E0,3.974496126E-1,1.180377483E0
1.427677749E0,6.402290821E0,3.615354896E-1,1.177983165E0
1.429679149E0,6.383136749E0,3.256213665E-1,1.182771802E0
1.431680482E0,6.349617004E0,3.088614643E-1,1.201925993E0
1.433687482E0,6.323279858E0,2.394274771E-1,1.237840056E0
1.435689048E0,6.292154312E0,2.226675600E-1,1.247417212E0
1.437690381E0,6.246663094E0,1.795706153E-1,1.283331275E0
1.439691747E0,6.244268894E0,1.675992310E-1,1.314456820E0
1.441692647E0,6.196382999E0,1.221080124E-1,1.374313712E0
1.443693980E0,6.177228928E0,6.943397224E-2,1.465296149E0
1.445695346E0,6.153286457E0,6.225114316E-2,1.494027495E0
1.447696679E0,6.129343510E0,4.549122229E-2,1.568249941E0
1.449698312E0,6.150891781E0,9.577099234E-3,1.673598051E0
1.451699678E0,6.165257454E0,-1.197137404E-2,1.716695070E0
1.453700944E0,6.179623127E0,-2.394274808E-2,1.814860344E0
1.455702144E0,6.172440529E0,-1.675992459E-2,1.867534399E0
1.457703510E0,6.210748672E0,-1.675992459E-2,1.951334000E0
1.459704810E0,6.263422966E0,-2.394274808E-2,2.054287672E0
1.461706143E0,6.275394440E0,-2.154847234E-2,2.109356165E0
1.463707509E0,6.311308384E0,-2.394274808E-2,2.209915638E0
1.465708842E0,6.380742550E0,4.788549617E-3,2.308080912E0
1.467710175E0,6.402290821E0,9.577099234E-3,2.363149166E0
1.469711508E0,6.488484859E0,3.351984918E-2,2.427794695E0
1.471712841E0,6.574678421E0,4.549122229E-2,2.549902678E0
1.473714174E0,6.603409767E0,5.027977005E-2,2.583422422E0
1.475715507E0,6.703969479E0,9.337671846E-2,2.676799297E0
1.477716840E0,6.766220570E0,1.005595401E-1,2.724684715E0
1.479718140E0,6.876357079E0,1.292908341E-1,2.796513081E0
1.481719406E0,7.000859737E0,1.604164094E-1,2.865947008E0
1.483720739E0,7.058321953E0,1.675992310E-1,2.889889717E0
1.485722105E0,7.182824612E0,2.154847383E-1,2.937775135E0
1.487723438E0,7.312115192E0,2.777358890E-1,2.964112282E0
1.489724771E0,7.448588848E0,3.160442710E-1,2.980872154E0
1.491726137E0,7.527599812E0,3.232271075E-1,2.995237827E0
1.495723169E0,7.719141960E0,3.687183261E-1,2.995237827E0
1.497725235E0,7.848433018E0,4.022381604E-1,2.949746609E0
1.499726568E0,7.939415455E0,4.453351200E-1,2.909043789E0
1.501727901E0,7.996877670E0,4.620950520E-1,2.899466753E0
1.503729267E0,8.104619980E0,5.051919818E-1,2.853975534E0
1.505730667E0,8.152505875E0,5.075862408E-1,2.837215662E0
1.507732000E0,8.241093636E0,5.267404318E-1,2.760598898E0
1.509733366E0,8.267431259E0,5.291347504E-1,2.712713242E0
1.511734699E0,8.298556328E0,5.506832004E-1,2.664827824E0
1.513736065E0,8.317710876E0,5.554717779E-1,2.576239586E0
1.515737465E0,8.322499275E0,5.339232683E-1,2.494834423E0
1.517738798E0,8.317710876E0,5.482889414E-1,2.432583094E0
1.519739831E0,8.298556328E0,5.267404318E-1,2.355966330E0
1.521741197E0,8.267431259E0,4.908263385E-1,2.264983892E0
1.523742763E0,8.248276711E0,4.597007632E-1,2.221887112E0
1.525743996E0,8.190814018E0,4.142095447E-1,2.128510237E0
1.527745362E0,8.178842545E0,4.094209969E-1,2.085413456E0
1.529746695E0,8.102226257E0,3.591412306E-1,1.980065227E0
1.531748028E0,8.035185814E0,3.136500120E-1,1.886688590E0
1.533749394E0,7.982511997E0,2.849186957E-1,1.826831698E0
1.535750727E0,7.901106834E0,2.130904645E-1,1.728666425E0
1.537752060E0,7.817307472E0,1.580221355E-1,1.675992370E0
1.539753460E0,7.764633179E0,1.292908341E-1,1.642472506E0
1.541754860E0,7.683228016E0,6.703969836E-2,1.608952641E0
1.543756193E0,7.541965485E0,2.873129770E-2,1.551490068E0
1.545757526E0,7.501263142E0,-1.197137404E-2,1.544307232E0
1.547758859E0,7.405491829E0,-8.379961550E-2,1.510787368E0
1.549760225E0,7.300143719E0,-1.340793967E-1,1.477267504E0
1.551761558E0,7.249864101E0,-1.747820675E-1,1.470084786E0
1.553765024E0,7.156487465E0,-2.130904645E-1,1.436564922E0
1.555766390E0,7.103813171E0,-2.322446555E-1,1.436564922E0
1.557767023E0,6.998465061E0,-2.801301479E-1,1.438959122E0
1.559768356E0,6.924242973E0,-3.256213665E-1,1.415016413E0
1.561769722E0,6.885934353E0,-3.399870098E-1,1.426987767E0
1.563771055E0,6.814105988E0,-3.782954216E-1,1.458113313E0
1.565772321E0,6.747066498E0,-4.237866402E-1,1.443747759E0
1.567773687E0,6.735095024E0,-4.381522834E-1,1.477267504E0
1.569775020E0,6.696786404E0,-4.453351200E-1,1.489238977E0
1.571776353E0,6.660872459E0,-4.740664065E-1,1.537124395E0
1.573777753E0,6.651295185E0,-4.908263385E-1,1.568249941E0
1.575779086E0,6.639324188E0,-4.884320498E-1,1.637683988E0
1.577780419E0,6.646506786E0,-4.932205975E-1,1.668809533E0
1.579782119E0,6.701575279E0,-4.692778587E-1,1.723877907E0
1.581783252E0,6.744672298E0,-4.812492430E-1,1.790917516E0
1.583784352E0,6.771008968E0,-4.764606953E-1,1.824437380E0
1.585785818E0,6.859597206E0,-4.501236677E-1,1.889082789E0
1.587787151E0,6.979310989E0,-4.525179267E-1,1.975276709E0
1.589788484E0,7.039167881E0,-4.501236677E-1,1.996825218E0
1.591789850E0,7.161275864E0,-4.668835998E-1,2.068653345E0
1.593791183E0,7.304932594E0,-4.668835998E-1,2.145270348E0
1.595797716E0,7.367183685E0,-4.836435020E-1,2.171607256E0
1.597799082E0,7.518023014E0,-4.764606953E-1,2.250618219E0
1.599800415E0,7.623371124E0,-4.740664065E-1,2.288926601E0
1.601801748E0,7.793364525E0,-4.764606953E-1,2.391880512E0
1.603803114E0,7.977723598E0,-4.812492430E-1,2.463708878E0
1.605804447E0,8.083071709E0,-5.027977228E-1,2.497228622E0
1.607805780E0,8.286584854E0,-4.956148863E-1,2.585816860E0
1.609807113E0,8.523618698E0,-5.027977228E-1,2.645673752E0
1.611808313E0,8.612206459E0,-4.956148863E-1,2.679193497E0
1.615808846E0,9.038387299E0,-5.219519138E-1,2.798907280E0
1.617810179E0,9.146129608E0,-5.147690773E-1,2.830032825E0
1.619811545E0,9.366402626E0,-5.315290093E-1,2.887495518E0
1.621812878E0,9.569916725E0,-5.435003638E-1,2.964112282E0
1.623814211E0,9.665687561E0,-5.363175869E-1,2.966506481E0
1.625815577E0,9.866806030E0,-5.435003638E-1,3.004814863E0
1.627816910E0,9.969759941E0,-5.458946824E-1,3.014391899E0
1.629818243E0,1.016130257E1,-5.219519138E-1,3.011997700E0
1.631819543E0,1.033608437E1,-5.099805593E-1,3.019180536E0
1.633820876E0,1.049410629E1,-4.597007632E-1,3.028757572E0
1.635822209E0,1.056114578E1,-4.453351200E-1,3.019180536E0
1.637823575E0,1.071437931E1,-4.309694767E-1,3.000026226E0
1.639824908E0,1.077902508E1,-4.142095447E-1,2.978477955E0
1.641826441E0,1.087958431E1,-3.759011328E-1,2.901860952E0
1.643827807E0,1.096098995E1,-3.375927508E-1,2.844398499E0
1.645829140E0,1.097535610E1,-3.208328187E-1,2.794118643E0
1.647830473E0,1.098014450E1,-2.585816681E-1,2.710319042E0
1.649831839E0,1.098253822E1,-2.083019018E-1,2.664827824E0
1.651832905E0,1.095141315E1,-1.747820675E-1,2.573845387E0
1.653834238E0,1.088197899E1,-1.245022863E-1,2.454131603E0
1.657831737E0,1.073114014E1,-3.351984918E-2,2.339206457E0
1.659833070E0,1.058748341E1,4.309694469E-2,2.231464148E0
1.661834436E0,1.051565456E1,6.943397224E-2,2.183578730E0
1.663835769E0,1.036002731E1,1.364736706E-1,2.083019018E0
1.665837102E0,1.017806244E1,2.059076279E-1,2.006402254E0
1.667838468E0,1.007989693E1,2.274561077E-1,1.972882390E0
1.669839801E0,9.900326729E0,3.112557232E-1,1.917814136E0
1.671841267E0,9.744698524E0,3.782954216E-1,1.903448462E0
1.673842633E0,9.663292885E0,4.118152559E-1,1.865140080E0
1.675843966E0,9.476539612E0,4.836435020E-1,1.850774407E0
1.677845299E0,9.378374100E0,5.291347504E-1,1.834014535E0
1.679846632E0,9.198803902E0,6.081457734E-1,1.802888989E0
1.681847965E0,9.045570374E0,6.727912426E-1,1.781340480E0
1.683849298E0,8.985713005E0,7.158881426E-1,1.759791970E0
1.685850331E0,8.846845627E0,7.757450342E-1,1.726272106E0
1.687851664E0,8.731920242E0,8.092648983E-1,1.699935079E0
1.689852997E0,8.669669151E0,8.356019258E-1,1.678386688E0
1.691854397E0,8.566715240E0,8.595446348E-1,1.659232497E0
1.693855730E0,8.458972931E0,8.882759809E-1,1.628106833E0
1.695857096E0,8.418270111E0,9.026415944E-1,1.613741279E0
1.697858429E0,8.336864471E0,9.170072675E-1,1.568249941E0
1.699863029E0,8.274613380E0,8.882759809E-1,1.546701550E0
1.701864395E0,8.236305237E0,8.906702399E-1,1.544307232E0
1.703865828E0,8.195602417E0,8.643332124E-1,1.529941559E0
1.705867161E0,8.181237221E0,8.595446348E-1,1.525153041E0
1.707868527E0,8.159688950E0,8.499675393E-1,1.537124395E0
1.709869793E0,8.145322800E0,8.092648983E-1,1.563461423E0
1.711871393E0,8.159688950E0,8.020820618E-1,1.587404251E0
1.713872759E0,8.205180168E0,7.254652381E-1,1.613741279E0
1.715874092E0,8.296162605E0,6.560313106E-1,1.666415215E0
1.717875425E0,8.334470749E0,6.129343510E-1,1.675992370E0
1.719876791E0,8.458972931E0,5.051919818E-1,1.699935079E0
1.721878124E0,8.621783257E0,4.142095447E-1,1.702329397E0
1.723879157E0,8.707977295E0,3.663240373E-1,1.721483588E0
1.725880523E0,8.901913643E0,2.513988614E-1,1.721483588E0
1.727881856E0,9.009655952E0,1.939362586E-1,1.731060743E0
1.729883189E0,9.225140572E0,4.788549617E-2,1.740637779E0
1.731884555E0,9.459779739E0,2.394274808E-3,1.728666425E0
1.733885888E0,9.555550575E0,-5.985686928E-2,1.731060743E0
1.735887221E0,9.806949615E0,-1.891477108E-1,1.723877907E0
1.737888521E0,1.003440571E1,-3.280156553E-1,1.721483588E0
1.739889854E0,1.013257122E1,-3.926610649E-1,1.711906433E0
1.741891187E0,1.035284424E1,-5.435003638E-1,1.673598051E0
1.743892553E0,1.055396366E1,-6.919454336E-1,1.611346960E0
1.745894186E0,1.063536835E1,-7.781392932E-1,1.592192769E0
1.747895486E0,1.081493950E1,-9.361614585E-1,1.549095750E0
1.749896852E0,1.087479591E1,-1.022355318E0,1.529941559E0
1.751898018E0,1.101845264E1,-1.168406129E0,1.482056141E0
1.753899351E0,1.112619495E1,-1.292908430E0,1.412622094E0
1.755900684E0,1.116210938E1,-1.383890867E0,1.391073704E0
1.757902017E0,1.123154354E1,-1.529941559E0,1.324033976E0
1.761901116E0,1.132731438E1,-1.769369125E0,1.247417212E0
1.763902282E0,1.134167957E1,-1.905842781E0,1.170800328E0
1.765903348E0,1.135604572E1,-2.032739401E0,1.077423692E0
1.767904681E0,1.133928585E1,-2.087807655E0,1.060663700E0
1.769906081E0,1.135125732E1,-2.205127001E0,9.720755816E-1
1.771907447E0,1.135843945E1,-2.293715239E0,9.337671995E-1
1.773908780E0,1.137280560E1,-2.348783493E0,8.260248303E-1
1.775910113E0,1.137280560E1,-2.420611858E0,7.302538157E-1
1.777911479E0,1.137041092E1,-2.439765930E0,6.823683381E-1
1.779912812E0,1.138238239E1,-2.504411459E0,6.033572555E-1
1.781914145E0,1.140153694E1,-2.537931204E0,5.243461728E-1
1.783920445E0,1.142787361E1,-2.557085514E0,4.716721475E-1
1.785921445E0,1.147097015E1,-2.564268351E0,3.830839694E-1
1.787922778E0,1.152843285E1,-2.566662550E0,3.280156553E-1
1.789923878E0,1.162420464E1,-2.578634024E0,2.705530524E-1
1.791925211E0,1.166969585E1,-2.564268351E0,2.466102988E-1
1.793926544E0,1.176307201E1,-2.552296877E0,1.819648892E-1
1.795927910E0,1.181814003E1,-2.547508478E0,1.747820675E-1
1.797929310E0,1.193306541E1,-2.554691315E0,1.747820675E-1
1.799930610E0,1.201447105E1,-2.549902678E0,1.843591630E-1
1.801931976E0,1.214615631E1,-2.506805658E0,2.059076279E-1
1.803933309E0,1.227544689E1,-2.473285913E0,2.537931204E-1
1.805934642E0,1.234248638E1,-2.466103077E0,2.897072434E-1
1.807936042E0,1.254121113E1,-2.437371731E0,3.591412306E-1
1.809937075E0,1.271120453E1,-2.396669149E0,4.453351200E-1
1.811938575E0,1.280937004E1,-2.367937803E0,4.692778587E-1
1.813939941E0,1.300330639E1,-2.322446585E0,6.009629965E-1
1.815941274E0,1.318287754E1,-2.245829821E0,7.470137477E-1
1.817942607E0,1.327146530E1,-2.200338602E0,7.996878028E-1
1.819943640E0,1.343906403E1,-2.154847383E0,9.624984860E-1
1.821945273E0,1.352765274E1,-2.116539001E0,1.043903828E0
1.823946673E0,1.366652107E1,-2.051893473E0,1.197137356E0
1.825948306E0,1.382693672E1,-2.001613855E0,1.343188167E0
1.827949639E0,1.390834236E1,-1.975276709E0,1.419804931E0
1.829950972E0,1.405918121E1,-1.917814136E0,1.549095750E0
1.831952305E0,1.416692448E1,-1.848380208E0,1.635289669E0
1.833953638E0,1.421241570E1,-1.807677507E0,1.673598051E0
1.835955004E0,1.430579185E1,-1.769369125E0,1.759791970E0
1.837956337E0,1.436085987E1,-1.702329397E0,1.810071707E0
1.839957670E0,1.437762070E1,-1.692752242E0,1.831620216E0
1.841959036E0,1.442790031E1,-1.678386688E0,1.879505754E0
1.845957402E0,1.445184231E1,-1.618529797E0,1.901054144E0
1.847958768E0,1.444226551E1,-1.630501151E0,1.881899953E0
1.849960101E0,1.441353416E1,-1.640078187E0,1.819648862E0
1.851961434E0,1.438719749E1,-1.647261024E0,1.793311834E0
1.853962800E0,1.433452320E1,-1.661626697E0,1.695146561E0
1.855964133E0,1.427945518E1,-1.692752242E0,1.608952641E0
1.857965133E0,1.417410660E1,-1.740637779E0,1.510787368E0
1.859966533E0,1.402566147E1,-1.783734679E0,1.383890867E0
1.861967866E0,1.395143890E1,-1.819648862E0,1.319245458E0
1.863969199E0,1.374553204E1,-1.862745762E0,1.213897347E0
1.865970565E0,1.353722954E1,-1.910631299E0,1.144463301E0
1.867971598E0,1.343667030E1,-1.922602654E0,1.096577883E0
1.869973231E0,1.322118568E1,-1.958516836E0,1.060663700E0
1.871974597E0,1.310386562E1,-1.946545362E0,1.041509509E0
1.873975930E0,1.286204433E1,-1.958516836E0,9.888355136E-1
1.875977263E0,1.264655972E1,-1.927391171E0,9.601042271E-1
1.877978629E0,1.251966286E1,-1.903448462E0,9.481328130E-1
1.879980295E0,1.231136131E1,-1.857957244E0,9.457385540E-1
1.881981628E0,1.208869362E1,-1.774157643E0,9.361614585E-1
1.883982994E0,1.199292278E1,-1.750214934E0,9.409499764E-1
1.885984327E0,1.178701496E1,-1.656838179E0,9.289786220E-1
1.887985660E0,1.163138676E1,-1.568249941E0,9.265843630E-1
1.889987026E0,1.154998207E1,-1.522758722E0,9.289786220E-1
1.891988359E0,1.138956547E1,-1.391073704E0,9.313728809E-1
1.893989692E0,1.132013130E1,-1.292908430E0,9.409499764E-1
1.895991025E0,1.122196579E1,-1.223474383E0,9.505270720E-1
1.897992358E0,1.110704041E1,-1.101366401E0,9.624984860E-1
1.899993391E0,1.106394386E1,-1.017566800E0,9.744698405E-1
1.901994724E0,1.098972130E1,-8.882759809E-1,9.984126091E-1
1.903996057E0,1.093225861E1,-7.398309112E-1,1.022355318E0
1.905997790E0,1.088916206E1,-6.847625971E-1,1.010383964E0
1.907999123E0,1.087000751E1,-5.794144869E-1,1.019961119E0
1.910000723E0,1.087479591E1,-4.501236677E-1,1.039115310E0
1.912002089E0,1.087240219E1,-3.998439014E-1,1.051086664E0
1.914003422E0,1.093465328E1,-2.777358890E-1,1.051086664E0
1.916004755E0,1.102084732E1,-1.843591630E-1,1.053480864E0
1.918006455E0,1.105915546E1,-1.412622184E-1,1.043903828E0
1.920007788E0,1.123154354E1,-1.125309169E-1,1.012778282E0
1.922009254E0,1.132013130E1,-1.077423692E-1,1.010383964E0
1.924010620E0,1.151167297E1,-9.337671846E-2,9.888355136E-1
1.926011953E0,1.172236919E1,-8.619388938E-2,9.481328130E-1
1.928013586E0,1.186123753E1,-1.053480953E-1,9.289786220E-1
1.930014952E0,1.212700176E1,-1.580221355E-1,8.858816624E-1
1.932016285E0,1.239755535E1,-2.394274771E-1,8.691217303E-1
1.934017318E0,1.252684593E1,-2.825244367E-1,8.571503758E-1
1.936018684E0,1.277106190E1,-3.998439014E-1,8.236305118E-1
1.938020017E0,1.298415184E1,-5.291347504E-1,7.972934842E-1
1.940021350E0,1.308950043E1,-6.081457734E-1,7.781392932E-1
1.942022716E0,1.323794556E1,-7.925049663E-1,7.877163887E-1
1.944024049E0,1.329301357E1,-9.792584181E-1,7.877163887E-1
1.946025382E0,1.337202454E1,-1.082212210E0,8.044763207E-1
1.948026748E0,1.339596748E1,-1.261782765E0,8.212362528E-1
1.950028081E0,1.338639069E1,-1.379102230E0,8.356019258E-1
1.952029414E0,1.335047626E1,-1.611346960E0,8.475732803E-1
1.954030780E0,1.324273396E1,-1.812466025E0,8.667274714E-1
1.956032046E0,1.316851139E1,-1.917814136E0,9.098244309E-1
1.958033379E0,1.298654652E1,-2.121327400E0,9.385557175E-1
1.960034979E0,1.276866722E1,-2.276955366E0,9.864411950E-1
1.962036312E0,1.265374279E1,-2.353572130E0,1.000806928E0
1.964037645E0,1.241910362E1,-2.492439985E0,1.036720991E0
1.966038611E0,1.216530991E1,-2.583422422E0,1.063058019E0
1.968039944E0,1.204799080E1,-2.624125242E0,1.101366401E0
1.970041277E0,1.183011150E1,-2.695953369E0,1.106154919E0
1.972042610E0,1.172715759E1,-2.705530643E0,1.122914910E0
1.974043943E0,1.152125072E1,-2.710319042E0,1.106154919E0
1.976045309E0,1.134646797E1,-2.736656189E0,1.084606528E0
1.978046642E0,1.126985168E1,-2.736656189E0,1.094183564E0
1.980047975E0,1.109985828E1,-2.719896078E0,1.087000728E0
1.982049208E0,1.091789341E1,-2.691164970E0,1.060663700E0
1.984050541E0,1.086761379E1,-2.660039425E0,1.067846537E0
1.986052141E0,1.070240879E1,-2.628913641E0,1.048692346E0
1.988053507E0,1.052283764E1,-2.604970932E0,1.046298146E0
1.990054840E0,1.044143200E1,-2.595393896E0,1.053480864E0
1.992056173E0,1.028341007E1,-2.557085514E0,1.036720991E0
1.994057839E0,1.019242764E1,-2.533142805E0,1.053480864E0
1.996059172E0,1.006792545E1,-2.523565531E0,1.072635174E0
1.998060505E0,9.919480324E0,-2.502017260E0,1.087000728E0
2.000062571E0,9.840469360E0,-2.478074312E0,1.113337755E0
2.002063904E0,9.684841156E0,-2.427794695E0,1.139674783E0
2.004065237E0,9.545973778E0,-2.403851986E0,1.187560320E0
2.006066603E0,9.478934288E0,-2.358360767E0,1.228263021E0
2.008067936E0,9.344854355E0,-2.334417820E0,1.295302629E0
2.010069269E0,9.232323647E0,-2.257801056E0,1.345582485E0
2.012070635E0,9.182044029E0,-2.233858347E0,1.388679385E0
2.014071968E0,9.069513321E0,-2.176395893E0,1.438959122E0
2.016073368E0,8.971347809E0,-2.087807655E0,1.482056141E0
2.018074668E0,8.921068192E0,-2.061470509E0,1.539518714E0
2.020076068E0,8.858817101E0,-1.992036581E0,1.613741279E0
2.022077401E0,8.808537483E0,-1.946545362E0,1.637683988E0
2.024078767E0,8.748680115E0,-1.843591571E0,1.704723716E0
2.026080100E0,8.698400497E0,-1.740637779E0,1.731060743E0
2.028081433E0,8.648120880E0,-1.690358043E0,1.769369125E0
2.030082799E0,8.624177933E0,-1.587404251E0,1.795706153E0
2.032090599E0,8.588263512E0,-1.484450340E0,1.807677507E0
2.034091932E0,8.573898315E0,-1.412622094E0,1.810071707E0
2.036093265E0,8.578686714E0,-1.295302629E0,1.788523316E0
2.038094531E0,8.581081390E0,-1.189954638E0,1.764580488E0
2.040095864E0,8.571503639E0,-1.127703428E0,1.750214934E0
2.042097197E0,8.561926842E0,-1.024749637E0,1.726272106E0
2.044098530E0,8.549955368E0,-9.648927450E-1,1.697540879E0
2.046099630E0,8.561926842E0,-8.667274714E-1,1.640078187E0
2.048100963E0,8.564320564E0,-7.733507752E-1,1.577827096E0
2.050102296E0,8.576292038E0,-7.326480746E-1,1.546701550E0
2.052103662E0,8.573898315E0,-6.344828010E-1,1.446141958E0
2.054104995E0,8.569109917E0,-5.722316504E-1,1.374313712E0
2.056107028E0,8.566715240E0,-5.458946824E-1,1.333611012E0
2.058108394E0,8.561926842E0,-4.836435020E-1,1.256994247E0
2.060109027E0,8.549955368E0,-4.477293789E-1,1.177983165E0
2.062110460E0,8.545166969E0,-4.189980924E-1,1.132491946E0
2.064111826E0,8.523618698E0,-3.878725171E-1,1.039115310E0
2.066113159E0,8.516435623E0,-3.759011328E-1,9.960182905E-1
2.068114492E0,8.518829346E0,-3.495641351E-1,8.954587579E-1
2.070115858E0,8.530800819E0,-3.615354896E-1,8.356019258E-1
2.072117191E0,8.516435623E0,-3.639297783E-1,7.972934842E-1
2.074118524E0,8.523618698E0,-3.615354896E-1,7.326480746E-1
2.076119890E0,8.497281075E0,-3.878725171E-1,6.775797606E-1
2.078121056E0,8.492492676E0,-3.806896806E-1,6.488484740E-1
2.080122389E0,8.449396133E0,-4.142095447E-1,5.865973234E-1
2.082123755E0,8.451789856E0,-4.501236677E-1,5.387118459E-1
2.084125088E0,8.435029984E0,-4.692778587E-1,5.099805593E-1
2.086126421E0,8.408693314E0,-4.812492430E-1,4.788549542E-1
2.088127787E0,8.389538765E0,-5.315290093E-1,4.405465722E-1
2.090129120E0,8.358413696E0,-5.722316504E-1,4.070267081E-1
2.094125352E0,8.327287674E0,-6.177229285E-1,4.142095447E-1
2.096126618E0,8.296162605E0,-6.727912426E-1,3.926610649E-1
2.098128018E0,8.241093636E0,-7.158881426E-1,3.974496126E-1
2.100129384E0,8.224333763E0,-7.350423932E-1,3.878725171E-1
2.102130717E0,8.188420296E0,-8.044763207E-1,3.926610649E-1
2.104132050E0,8.157294273E0,-8.403904438E-1,4.333637357E-1
2.106133383E0,8.135746002E0,-8.260248303E-1,4.261809289E-1
2.108134716E0,8.083071709E0,-8.763045669E-1,4.668835998E-1
2.110136049E0,8.035185814E0,-9.026415944E-1,4.788549542E-1
2.112137382E0,8.006455421E0,-9.385557175E-1,4.812492430E-1
2.114138715E0,7.972935200E0,-9.553156495E-1,4.812492430E-1
2.116139381E0,7.939415455E0,-9.768640995E-1,5.051919818E-1
2.118140714E0,7.884346962E0,-9.936240315E-1,5.171633363E-1
2.120142047E0,7.836461544E0,-1.036720991E0,5.315290093E-1
2.122143313E0,7.824490070E0,-1.039115310E0,5.267404318E-1
2.124144646E0,7.798152924E0,-1.110943556E0,5.435003638E-1
2.126145979E0,7.735901833E0,-1.134886265E0,5.554717779E-1
2.128147345E0,7.721536160E0,-1.158828974E0,5.746259689E-1
2.130148678E0,7.664073467E0,-1.173194647E0,5.842030644E-1
2.132149911E0,7.647313595E0,-1.199531674E0,6.129343510E-1
2.134151277E0,7.609005451E0,-1.237840056E0,6.201171875E-1
2.136152610E0,7.575485706E0,-1.264177084E0,6.416656375E-1
2.138154176E0,7.539571285E0,-1.288119793E0,6.632141471E-1
2.140155542E0,7.527599812E0,-1.302485466E0,7.015225291E-1
2.142156875E0,7.484503269E0,-1.355159521E0,7.302538157E-1
2.144158208E0,7.465348721E0,-1.355159521E0,7.398309112E-1
2.146159574E0,7.422251701E0,-1.381496549E0,7.757450342E-1
2.148160907E0,7.364789486E0,-1.415016413E0,8.068706393E-1
2.150166040E0,7.340846539E0,-1.455719113E0,8.451790214E-1
2.152167406E0,7.300143719E0,-1.484450340E0,8.595446348E-1
2.154168739E0,7.261835575E0,-1.498816013E0,9.050358534E-1
2.156170139E0,7.261835575E0,-1.505998850E0,9.385557175E-1
2.158171505E0,7.209161282E0,-1.513181686E0,9.672870040E-1
2.160172838E0,7.146910191E0,-1.525153041E0,1.005595446E0
2.162174171E0,7.118178844E0,-1.527547359E0,1.019961119E0
2.164175537E0,7.089447498E0,-1.513181686E0,1.034326673E0
2.166176703E0,7.075081825E0,-1.494027495E0,1.053480864E0
2.168178036E0,7.027196407E0,-1.465296149E0,1.051086664E0
2.170179402E0,6.996070862E0,-1.441353440E0,1.046298146E0
2.172180735E0,6.969734192E0,-1.422199249E0,1.051086664E0
2.174182068E0,6.924242973E0,-1.388679385E0,1.046298146E0
2.176183401E0,6.876357079E0,-1.331216812E0,1.055875182E0
2.178184734E0,6.838048935E0,-1.302485466E0,1.048692346E0
2.180186067E0,6.818894863E0,-1.247417212E0,1.051086664E0
2.182187400E0,6.794951916E0,-1.175588965E0,1.060663700E0
2.184188733E0,6.778192043E0,-1.156434774E0,1.055875182E0
2.186190099E0,6.756643295E0,-1.084606528E0,1.034326673E0
2.188191432E0,6.761432171E0,-1.024749637E0,1.024749637E0
2.190192765E0,6.749460697E0,-9.984126091E-1,1.022355318E0
2.192194231E0,6.735095024E0,-9.265843630E-1,1.000806928E0
2.194195564E0,6.747066498E0,-8.978530765E-1,9.840469360E-1
2.196196897E0,6.737489223E0,-8.164477348E-1,9.529213905E-1
2.198198263E0,6.713546753E0,-7.757450342E-1,9.170072675E-1
2.200199596E0,6.701575279E0,-7.565908432E-1,8.882759809E-1
2.202200929E0,6.701575279E0,-6.751855016E-1,8.499675393E-1
2.204202295E0,6.706363678E0,-6.129343510E-1,8.068706393E-1
2.206203561E0,6.720729351E0,-5.842030644E-1,7.948992252E-1
2.208204894E0,6.732700825E0,-5.243461728E-1,7.422251701E-1
2.212203793E0,6.771008968E0,-4.213923812E-1,6.871568561E-1
2.214205059E0,6.794951916E0,-3.543526828E-1,6.368771195E-1
2.216206359E0,6.799740314E0,-3.160442710E-1,6.344828010E-1
2.218207625E0,6.828471661E0,-2.561874092E-1,5.770202279E-1
2.220208658E0,6.885934353E0,-2.106961906E-1,5.363175869E-1
2.222209958E0,6.900300026E0,-1.699935049E-1,4.956148863E-1
2.224211291E0,6.917059898E0,-1.149251908E-1,4.573064744E-1
2.226212791E0,6.962551117E0,-5.746259540E-2,4.142095447E-1
2.228213824E0,6.964945316E0,-3.351984918E-2,3.782954216E-1
2.230215157E0,7.005648136E0,3.112557158E-2,3.351984620E-1
2.232216490E0,7.027196407E0,6.703969836E-2,3.064671755E-1
2.234218323E0,7.046350956E0,9.577099234E-2,2.777358890E-1
2.236219656E0,7.058321953E0,1.245022863E-1,2.394274771E-1
2.238220989E0,7.058321953E0,1.532335877E-1,1.939362586E-1
2.240222355E0,7.070293427E0,2.011190802E-1,1.771763414E-1
2.242223688E0,7.065505028E0,2.298503816E-1,1.173194647E-1
2.244225021E0,7.082264900E0,2.370332032E-1,1.029538140E-1
2.246226354E0,7.099024773E0,2.753416002E-1,6.943397224E-2
2.248227687E0,7.101418972E0,2.873129845E-1,3.351984918E-2
2.250229020E0,7.099024773E0,2.777358890E-1,1.915419847E-2
2.252230353E0,7.113390446E0,2.585816681E-1,-9.577099234E-3
2.254231686E0,7.106207848E0,2.777358890E-1,-4.549122229E-2
2.256233052E0,7.125361919E0,2.633702159E-1,-5.267404765E-2
2.258234185E0,7.134938717E0,2.274561077E-1,-7.422251999E-2
2.260235518E0,7.125361919E0,2.154847383E-1,-9.577099234E-2
2.262236818E0,7.134938717E0,1.987248063E-1,-1.197137386E-1
2.264238151E0,7.144515991E0,1.412622184E-1,-1.412622184E-1
2.266239551E0,7.146910191E0,1.221080124E-1,-1.460507661E-1
2.268240851E0,7.166064739E0,6.943397224E-2,-1.460507661E-1
2.270242184E0,7.192401409E0,2.394274808E-2,-1.484450400E-1
2.272243417E0,7.199584484E0,-3.112557158E-2,-1.292908341E-1
2.274244850E0,7.235498428E0,-1.197137386E-1,-1.268965602E-1
2.276246250E0,7.259441376E0,-1.867534369E-1,-1.053480953E-1
2.278247650E0,7.261835575E0,-2.370332032E-1,-9.577099234E-2
2.280250250E0,7.295355320E0,-3.304099143E-1,-7.901106775E-2
2.282251650E0,7.309720993E0,-4.429408312E-1,-5.506832153E-2
2.284252983E0,7.302538395E0,-4.932205975E-1,-4.549122229E-2
2.286254349E0,7.326480865E0,-5.889915824E-1,1.915419847E-2
2.288256015E0,7.336058140E0,-6.488484740E-1,3.591412306E-2
2.290257348E0,7.338452339E0,-7.494080067E-1,1.077423692E-1
2.292258714E0,7.340846539E0,-8.667274714E-1,1.915419847E-1
2.294259580E0,7.348029613E0,-9.170072675E-1,2.154847383E-1
2.296260913E0,7.350423813E0,-9.960182905E-1,2.825244367E-1
2.298262213E0,7.362394810E0,-1.106154919E0,3.615354896E-1
2.300263546E0,7.362394810E0,-1.146857619E0,3.974496126E-1
2.302264879E0,7.357606411E0,-1.249811411E0,4.836435020E-1
2.304266345E0,7.386337757E0,-1.350371003E0,5.674431324E-1
2.306267678E0,7.403097630E0,-1.393467903E0,6.201171875E-1
2.308269011E0,7.422251701E0,-1.486844659E0,7.110996246E-1
2.310270377E0,7.441406250E0,-1.563461423E0,7.541965842E-1
2.312271710E0,7.479714394E0,-1.604164124E0,8.499675393E-1
2.314273043E0,7.546754360E0,-1.680780888E0,9.768640995E-1
2.316274376E0,7.568302631E0,-1.716695070E0,1.024749637E0
2.318275909E0,7.668862343E0,-1.781340480E0,1.132491946E0
2.320277242E0,7.747873306E0,-1.836408734E0,1.256994247E0
2.322278642E0,7.800547123E0,-1.845985889E0,1.328822494E0
2.324279975E0,7.932232380E0,-1.886688590E0,1.450930476E0
2.326282041E0,8.068706512E0,-1.903448462E0,1.556278586E0
2.328283441E0,8.135746002E0,-1.929785490E0,1.601769805E0
2.330284774E0,8.274613380E0,-1.941756845E0,1.721483588E0
2.332290940E0,8.439818382E0,-1.958516836E0,1.860351562E0
2.334292273E0,8.509252548E0,-1.953728199E0,1.903448462E0
2.336293606E0,8.648120880E0,-1.958516836E0,2.004008055E0
2.338294972E0,8.703188896E0,-1.953728199E0,2.047105074E0
2.340295372E0,8.858817101E0,-1.934574008E0,2.114144564E0
2.342296705E0,8.978530884E0,-1.951334000E0,2.162030220E0
2.344298071E0,9.067118645E0,-1.956122518E0,2.166818619E0
2.346299404E0,9.182044029E0,-1.929785490E0,2.193155766E0
2.348300737E0,9.275420189E0,-1.913025618E0,2.221887112E0
2.350302103E0,9.318517685E0,-1.913025618E0,2.226675510E0
2.352303236E0,9.414288521E0,-1.898659945E0,2.224281311E0
2.354304569E0,9.459779739E0,-1.862745762E0,2.200338602E0
2.356305935E0,9.486116409E0,-1.845985889E0,2.181184292E0
2.358307335E0,9.522030830E0,-1.817254543E0,2.162030220E0
2.360308668E0,9.529213905E0,-1.788523316E0,2.123721838E0
2.362310034E0,9.517242432E0,-1.793311834E0,2.083019018E0
2.364311200E0,9.510059357E0,-1.774157643E0,2.032739401E0
2.366312666E0,9.505270958E0,-1.766974807E0,2.004008055E0
2.368314032E0,9.483722687E0,-1.728666425E0,1.972882390E0
2.370315365E0,9.433443069E0,-1.714300752E0,1.905842781E0
2.372316698E0,9.426259995E0,-1.687963724E0,1.867534399E0
2.374318064E0,9.380768776E0,-1.666415215E0,1.819648862E0
2.376319397E0,9.311334610E0,-1.644866824E0,1.750214934E0
2.378320730E0,9.275420189E0,-1.616135478E0,1.721483588E0
2.380322096E0,9.217958450E0,-1.594586968E0,1.632895470E0
2.382324562E0,9.174860954E0,-1.570644259E0,1.541913033E0
2.384325895E0,9.141341209E0,-1.561067224E0,1.472478986E0
2.386326528E0,9.074301720E0,-1.522758722E0,1.364736676E0
2.388327861E0,9.031204224E0,-1.510787368E0,1.314456820E0
2.390329194E0,8.954587936E0,-1.455719113E0,1.211503029E0
2.394327160E0,8.923461914E0,-1.417410731E0,1.041509509E0
2.396328493E0,8.882759094E0,-1.376708031E0,9.026415944E-1
2.398329826E0,8.892336845E0,-1.352765322E0,7.853221297E-1
2.400331159E0,8.877970695E0,-1.340793848E0,7.422251701E-1
2.402332192E0,8.870788574E0,-1.309668303E0,6.656084061E-1
2.404333525E0,8.899519920E0,-1.271359921E0,5.889915824E-1
2.406334858E0,8.906702042E0,-1.256994247E0,5.698373914E-1
2.408336224E0,8.949799538E0,-1.221080184E0,5.506832004E-1
2.410337557E0,8.973741531E0,-1.206714511E0,5.482889414E-1
2.412339090E0,9.059935570E0,-1.189954638E0,5.626545548E-1
2.414340456E0,9.143735886E0,-1.146857619E0,5.626545548E-1
2.416341789E0,9.198803902E0,-1.137280583E0,5.698373914E-1
2.418343122E0,9.340065956E0,-1.101366401E0,5.674431324E-1
2.420344488E0,9.471751213E0,-1.075029373E0,5.961744189E-1
2.422349754E0,9.553156853E0,-1.070240855E0,6.033572555E-1
2.424351154E0,9.759063721E0,-1.034326673E0,6.464542150E-1
2.426352654E0,9.972154617E0,-1.005595446E0,6.656084061E-1
2.428353987E0,1.008468533E1,-9.936240315E-1,6.967339516E-1
2.430355320E0,1.035044956E1,-9.241901040E-1,7.589851022E-1
2.432356686E0,1.061382008E1,-8.379961848E-1,7.829278708E-1
2.434358019E0,1.076465988E1,-8.236305118E-1,8.451790214E-1
2.436359319E0,1.107112694E1,-7.374366522E-1,8.978530765E-1
2.438360685E0,1.121478367E1,-6.943396926E-1,9.217957854E-1
2.440362018E0,1.152843285E1,-6.057515144E-1,9.553156495E-1
2.442362218E0,1.186363125E1,-4.668835998E-1,1.005595446E0
2.444363584E0,1.202165413E1,-3.974496126E-1,1.031932473E0
2.446364917E0,1.233290958E1,-2.513988614E-1,1.034326673E0
2.448366250E0,1.261303997E1,-5.746259540E-2,1.029538155E0
2.450368316E0,1.288598728E1,1.053480953E-1,9.840469360E-1
2.452369649E0,1.298415184E1,1.987248063E-1,9.241901040E-1
2.454370982E0,1.318766594E1,4.285751879E-1,8.691217303E-1
2.456373048E0,1.328583050E1,5.506832004E-1,8.403904438E-1
2.458374381E0,1.349652672E1,8.092648983E-1,7.805336118E-1
2.460375714E0,1.358750916E1,9.289786220E-1,7.350423932E-1
2.462377380E0,1.373595428E1,1.204320192E0,6.680026650E-1
2.464378713E0,1.389397717E1,1.446141958E0,6.081457734E-1
2.466380046E0,1.396341038E1,1.568249941E0,5.626545548E-1
2.468381379E0,1.408551884E1,1.757397652E0,4.980091453E-1
2.470382712E0,1.422438622E1,1.891477108E0,4.333637357E-1
2.472384078E0,1.427706051E1,1.948939681E0,3.711125851E-1
2.474385344E0,1.437762070E1,2.035133600E0,3.064671755E-1
2.476386677E0,1.444466019E1,2.087807655E0,2.274561077E-1
2.478388043E0,1.446860313E1,2.116539001E0,2.035133541E-1
2.480389376E0,1.447099686E1,2.118933201E0,1.723877788E-1
2.484388142E0,1.447339153E1,2.061470509E0,1.556278616E-1
2.486389208E0,1.446142006E1,1.994430900E0,1.412622184E-1
2.488390541E0,1.447578526E1,1.924996972E0,1.604164094E-1
2.490391574E0,1.445902538E1,1.790917516E0,1.436564922E-1
2.492392907E0,1.443508244E1,1.616135478E0,1.556278616E-1
2.494394240E0,1.442311192E1,1.553884387E0,1.484450400E-1
2.496395640E0,1.439198589E1,1.383890867E0,1.723877788E-1
2.498396973E0,1.437043762E1,1.245022893E0,1.987248063E-1
2.500398306E0,1.435846615E1,1.170800328E0,2.035133541E-1
2.502399672E0,1.432734013E1,1.015172482E0,2.274561077E-1
2.504401005E0,1.432015800E1,8.475732803E-1,2.729473412E-1
2.506402338E0,1.431297493E1,7.685621977E-1,3.040728867E-1
2.508403704E0,1.429142666E1,6.344828010E-1,3.447755575E-1
2.510405270E0,1.428424358E1,5.027977228E-1,3.974496126E-1
2.512406603E0,1.429142666E1,4.549122155E-1,4.405465722E-1
2.514407969E0,1.432734013E1,3.280156553E-1,5.195576549E-1
2.516408602E0,1.433212948E1,2.897072434E-1,5.674431324E-1
2.518409935E0,1.436325455E1,2.083019018E-1,6.416656375E-1
2.520411301E0,1.439438057E1,1.149251908E-1,7.589851022E-1
2.522412634E0,1.443029404E1,8.379961550E-2,8.068706393E-1
2.524413967E0,1.448296833E1,4.549122229E-2,8.858816624E-1
2.526415333E0,1.453564262E1,1.915419847E-2,9.936240315E-1
2.528416666E0,1.459310532E1,1.675992459E-2,1.058269501E0
2.530417666E0,1.465535641E1,-1.436564885E-2,1.161223292E0
2.532418999E0,1.470563602E1,-1.675992459E-2,1.201925993E0
2.534421099E0,1.476549244E1,-2.873129770E-2,1.256994247E0
2.536422432E0,1.487562943E1,-7.182824425E-3,1.343188167E0
2.538423765E0,1.494985199E1,-2.394274808E-3,1.367130876E0
2.540425098E0,1.507195950E1,9.577099234E-3,1.436564922E0
2.542426098E0,1.519885635E1,7.182824425E-3,1.482056141E0
2.544427431E0,1.526829052E1,-2.394274808E-3,1.510787368E0
2.546428764E0,1.542391872E1,-3.351984918E-2,1.529941559E0
2.548430130E0,1.559391212E1,-5.267404765E-2,1.558672905E0
2.550431796E0,1.568249989E1,-4.309694469E-2,1.573038578E0
2.552432862E0,1.588122463E1,-5.506832153E-2,1.589798450E0
2.554434228E0,1.603924751E1,-7.661679387E-2,1.587404251E0
2.556435561E0,1.609910393E1,-9.337671846E-2,1.573038578E0
2.558436894E0,1.624515533E1,-1.077423692E-1,1.582615614E0
2.560438260E0,1.632416534E1,-1.340793967E-1,1.563461423E0
2.562439593E0,1.642951393E1,-1.675992310E-1,1.544307232E0
2.564440926E0,1.654683304E1,-1.340793967E-1,1.553884387E0
2.566442292E0,1.663781548E1,-1.268965602E-1,1.534730196E0
2.568443625E0,1.677189445E1,-1.173194647E-1,1.525153041E0
2.570444025E0,1.690597534E1,-7.661679387E-2,1.491633177E0
2.572445391E0,1.703526497E1,-1.197137404E-2,1.441353440E0
2.574446724E0,1.707836151E1,3.351984918E-2,1.419804931E0
2.576448057E0,1.710948753E1,1.149251908E-1,1.347976685E0
2.578449423E0,1.710470009E1,1.891477108E-1,1.297696948E0
2.580450756E0,1.702808189E1,3.447755575E-1,1.204320192E0
2.582451756E0,1.697540855E1,4.142095447E-1,1.161223292E0
2.584453122E0,1.674555779E1,5.746259689E-1,1.039115310E0
2.586454455E0,1.644627380E1,7.613793612E-1,9.385557175E-1
2.588455788E0,1.629782867E1,8.619389534E-1,8.858816624E-1
2.590457488E0,1.599136162E1,1.070240855E0,7.805336118E-1
2.592458821E0,1.569925976E1,1.237840056E0,7.518022656E-1
2.594459454E0,1.554842091E1,1.338399649E0,7.398309112E-1
2.596460820E0,1.527068520E1,1.482056141E0,7.134938836E-1
2.598461820E0,1.500970840E1,1.608952641E0,7.206767201E-1
2.600463153E0,1.487562943E1,1.673598051E0,7.230709791E-1
2.602464853E0,1.468648148E1,1.764580488E0,7.494080067E-1
2.604466186E0,1.457873917E1,1.834014535E0,7.613793612E-1
2.606467519E0,1.436564922E1,1.850774407E0,8.140534163E-1
2.608468852E0,1.416213512E1,1.898659945E0,8.332076073E-1
2.610470185E0,1.402326775E1,1.891477108E0,8.523618579E-1
2.612471818E0,1.381257153E1,1.893871427E0,8.810931444E-1
2.614473151E0,1.359229851E1,1.857957244E0,9.313728809E-1
2.616474484E0,1.349413300E1,1.838803053E0,9.720755816E-1
2.618475850E0,1.324991703E1,1.781340480E0,1.022355318E0
2.620477183E0,1.300091267E1,1.707117915E0,1.101366401E0
2.622478516E0,1.288119888E1,1.692752242E0,1.158828974E0
2.624479549E0,1.261303997E1,1.649655342E0,1.233051538E0
2.626480882E0,1.236403465E1,1.568249941E0,1.309668303E0
2.628482215E0,1.226826382E1,1.561067224E0,1.343188167E0
2.630483581E0,1.205277920E1,1.484450340E0,1.415016413E0
2.632484847E0,1.194024849E1,1.470084786E0,1.465296149E0
2.634486180E0,1.172236919E1,1.417410731E0,1.558672905E0
2.636487546E0,1.152603912E1,1.352765322E0,1.632895470E0
2.638488879E0,1.144942188E1,1.331216812E0,1.680780888E0
2.640490212E0,1.128182316E1,1.285725594E0,1.766974807E0
2.642491912E0,1.110464668E1,1.225868702E0,1.841197371E0
2.644493245E0,1.103521252E1,1.209108829E0,1.898659945E0
2.646494578E0,1.088197899E1,1.161223292E0,1.980065227E0
2.648495944E0,1.076705360E1,1.106154919E0,2.054287672E0
2.650497277E0,1.071437931E1,1.075029373E0,2.090201855E0
2.652498610E0,1.059227180E1,1.036720991E0,2.152452946E0
2.654499976E0,1.053002071E1,9.720755816E-1,2.164424419E0
2.656501309E0,1.041509533E1,9.696813226E-1,2.207521439E0
2.658502975E0,1.032890129E1,9.289786220E-1,2.202732801E0
2.660504341E0,1.029059315E1,8.978530765E-1,2.219492674E0
2.662505674E0,1.020679379E1,8.571503758E-1,2.159635782E0
2.664507707E0,1.009426212E1,7.948992252E-1,2.154847383E0
2.666509073E0,1.003919411E1,7.709565163E-1,2.128510237E0
2.668510406E0,9.945817947E0,7.254652381E-1,2.099778891E0
2.670511739E0,9.866806030E0,6.703969240E-1,2.030344963E0
2.672514105E0,9.809344292E0,6.464542150E-1,2.001613855E0
2.674515438E0,9.718361855E0,5.985686779E-1,1.913025618E0
2.676516771E0,9.613013268E0,5.315290093E-1,1.831620216E0
2.678518104E0,9.567522049E0,5.171633363E-1,1.776551962E0
2.680519370E0,9.466962814E0,4.357580245E-1,1.699935079E0
2.682521836E0,9.419076920E0,4.166038036E-1,1.654443860E0
2.684523502E0,9.316123009E0,3.759011328E-1,1.529941559E0
2.686525168E0,9.232323647E0,3.112557232E-1,1.424593568E0
2.688526534E0,9.194015503E0,2.825244367E-1,1.362342358E0
2.690527867E0,9.088666916E0,2.059076279E-1,1.259388566E0
2.692529267E0,8.976136208E0,1.508393139E-1,1.158828974E0
2.694530633E0,8.897125244E0,1.316851079E-1,1.118126392E0
2.696531966E0,8.786988258E0,1.029538140E-1,1.012778282E0
2.698533299E0,8.643332481E0,6.943397224E-2,9.337671995E-1
2.700534665E0,8.583475113E0,5.506832153E-2,8.954587579E-1
2.702535998E0,8.415876389E0,4.070267081E-2,8.044763207E-1
2.704537331E0,8.344047546E0,3.351984918E-2,7.757450342E-1
2.706538697E0,8.205180168E0,2.394274808E-2,6.943396926E-1
2.708540030E0,8.071100235E0,7.182824425E-3,6.201171875E-1
2.710541363E0,7.982511997E0,9.577099234E-3,5.913859010E-1
2.712542729E0,7.812518597E0,0.000000000E0,5.411061049E-1
2.714544062E0,7.652102470E0,3.112557158E-2,5.123748183E-1
2.716545395E0,7.577879906E0,2.154847234E-2,4.788549542E-1
2.718546761E0,7.434223175E0,3.591412306E-2,4.453351200E-1
2.720548094E0,7.245075703E0,4.549122229E-2,4.213923812E-1
2.722549127E0,7.163670063E0,4.549122229E-2,4.213923812E-1
2.724549727E0,7.010436535E0,5.746259540E-2,4.189980924E-1
2.726551060E0,6.866780281E0,6.943397224E-2,4.166038036E-1
2.728553493E0,6.790163517E0,6.464541703E-2,4.213923812E-1
2.730554859E0,6.651295185E0,8.379961550E-2,4.142095447E-1
2.732555159E0,6.577073097E0,8.379961550E-2,4.189980924E-1
2.734556492E0,6.433416367E0,6.464541703E-2,3.926610649E-1
2.736557858E0,6.289760113E0,7.182824612E-2,3.902668059E-1
2.738559191E0,6.225114346E0,7.422251999E-2,3.782954216E-1
2.740560591E0,6.074275017E0,6.703969836E-2,3.663240373E-1
2.742560824E0,5.947378635E0,6.225114316E-2,3.735068738E-1
2.744562157E0,5.880339146E0,5.027977005E-2,3.830839694E-1
2.746563157E0,5.748653889E0,3.830839694E-2,3.878725171E-1
2.748564490E0,5.631334305E0,3.112557158E-2,3.974496126E-1
2.750565956E0,5.490072250E0,4.788549617E-3,4.189980924E-1
2.752566989E0,5.444581032E0,-9.577099234E-3,4.309694767E-1
2.754568322E0,5.375146866E0,-7.182824425E-3,4.477293789E-1
2.756569655E0,5.238673210E0,-4.788549617E-2,4.812492430E-1
2.758571021E0,5.142902374E0,-5.506832153E-2,5.051919818E-1
2.760572354E0,5.102199554E0,-5.746259540E-2,5.099805593E-1
2.762573687E0,4.972908974E0,-7.901106775E-2,5.411061049E-1
2.764575053E0,4.874743462E0,-1.125309169E-1,5.554717779E-1
2.766576386E0,4.834040642E0,-1.340793967E-1,5.674431324E-1
2.768577719E0,4.781366825E0,-1.412622184E-1,5.818088055E-1
2.770579085E0,4.704750061E0,-1.556278616E-1,5.865973234E-1
2.772580418E0,4.680807114E0,-1.484450400E-1,5.889915824E-1
2.774581751E0,4.625739098E0,-1.771763414E-1,5.961744189E-1
2.776583117E0,4.628133297E0,-1.939362586E-1,6.009629965E-1
2.778584450E0,4.597007751E0,-1.843591630E-1,6.033572555E-1
2.780585783E0,4.585036278E0,-1.771763414E-1,6.081457734E-1
2.782589949E0,4.570670605E0,-1.723877788E-1,6.320885420E-1
2.784591349E0,4.563488007E0,-1.628106833E-1,6.296942830E-1
2.786592682E0,4.604190350E0,-1.628106833E-1,6.153286099E-1
2.788592948E0,4.630527496E0,-1.508393139E-1,6.392713785E-1
2.790594281E0,4.692778587E0,-7.182824612E-2,6.680026650E-1
2.792595614E0,4.771789551E0,-3.351984918E-2,7.039167881E-1
2.794596980E0,4.807703972E0,-2.154847234E-2,6.991282701E-1
2.796598313E0,4.908263206E0,3.591412306E-2,7.254652381E-1
2.798599646E0,5.001639843E0,7.901106775E-2,7.494080067E-1
2.800601012E0,5.073468208E0,1.340793967E-1,7.470137477E-1
2.802602345E0,5.181210518E0,1.867534369E-1,7.757450342E-1
2.804603678E0,5.255433083E0,2.202732861E-1,7.829278708E-1
2.806605044E0,5.389512539E0,2.729473412E-1,8.020820618E-1
2.808606377E0,5.528380394E0,3.304099143E-1,7.948992252E-1
2.810607577E0,5.700768471E0,3.759011328E-1,7.877163887E-1
2.812615810E0,5.782173634E0,4.094209969E-1,7.877163887E-1
2.814617076E0,5.959350109E0,4.932205975E-1,7.901107073E-1
2.816618376E0,6.038361073E0,5.195576549E-1,8.092648983E-1
2.818619642E0,6.232297421E0,5.722316504E-1,7.805336118E-1
2.820620908E0,6.397502422E0,6.488484740E-1,7.661679387E-1
2.822622208E0,6.478907585E0,6.751855016E-1,7.494080067E-1
2.824623474E0,6.658478260E0,7.302538157E-1,7.398309112E-1
2.826624740E0,6.735095024E0,7.829278708E-1,7.254652381E-1
2.828625773E0,6.893116951E0,8.236305118E-1,6.991282701E-1
2.830627039E0,7.039167881E0,8.523618579E-1,6.823683381E-1
2.832628305E0,7.115784645E0,8.930644989E-1,6.847625971E-1
2.834629605E0,7.259441376E0,9.361614585E-1,6.608198285E-1
2.836630871E0,7.400703430E0,9.696813226E-1,6.296942830E-1
2.838632137E0,7.450983047E0,1.003201127E0,6.129343510E-1
2.840633437E0,7.568302631E0,1.029538155E0,5.937801600E-1
2.844633603E0,7.723930359E0,1.051086664E0,5.458946824E-1
2.846638936E0,7.814912796E0,1.082212210E0,4.932205975E-1
2.848640269E0,7.922655106E0,1.087000728E0,4.836435020E-1
2.850641602E0,7.963357925E0,1.091789365E0,4.740664065E-1
2.852642968E0,8.032792091E0,1.060663700E0,4.597007632E-1
2.854644234E0,8.049551964E0,1.060663700E0,4.309694767E-1
2.856645567E0,8.099831581E0,1.072635174E0,4.189980924E-1
2.858646933E0,8.121379852E0,1.053480864E0,4.142095447E-1
2.860648266E0,8.130957603E0,1.019961119E0,3.782954216E-1
2.862649599E0,8.159688950E0,9.888355136E-1,3.495641351E-1
2.864650965E0,8.135746002E0,9.553156495E-1,2.897072434E-1
2.866652365E0,8.138139725E0,9.265843630E-1,2.873129845E-1
2.868653431E0,8.097437859E0,8.739103079E-1,2.729473412E-1
2.870654797E0,8.030397415E0,8.044763207E-1,2.585816681E-1
2.874651529E0,7.944203854E0,6.895511150E-1,2.394274771E-1
2.876652929E0,7.905895233E0,6.344828010E-1,2.274561077E-1
2.878654329E0,7.783787251E0,5.554717779E-1,2.346389294E-1
2.880655462E0,7.695199013E0,4.908263385E-1,2.633702159E-1
2.882656862E0,7.644919395E0,4.620950520E-1,2.681587934E-1
2.884658262E0,7.539571285E0,3.926610649E-1,2.777358890E-1
2.886659662E0,7.417463303E0,3.184385598E-1,2.825244367E-1
2.888661328E0,7.357606411E0,2.777358890E-1,3.136500120E-1
2.890662728E0,7.245075703E0,2.035133541E-1,3.088614643E-1
2.892664161E0,7.139727592E0,1.436564922E-1,3.136500120E-1
2.894665561E0,7.089447498E0,1.173194647E-1,3.160442710E-1
2.896666961E0,6.972128391E0,6.225114316E-2,3.399870098E-1
2.898668394E0,6.926637173E0,3.591412306E-2,3.495641351E-1
2.900669794E0,6.826077461E0,9.577099234E-3,3.806896806E-1
2.902671127E0,6.737489223E0,-1.436564885E-2,4.094209969E-1
2.904672493E0,6.701575279E0,-3.351984918E-2,4.166038036E-1
2.908671192E0,6.524398804E0,-1.101366431E-1,4.860377908E-1
2.910672558E0,6.517216206E0,-1.268965602E-1,5.027977228E-1
2.912673891E0,6.447782040E0,-1.388679445E-1,5.554717779E-1
2.914675291E0,6.402290821E0,-1.628106833E-1,6.177229285E-1
2.916676657E0,6.368771076E0,-1.747820675E-1,6.440598965E-1
2.918677990E0,6.308914185E0,-1.891477108E-1,7.039167881E-1
2.920680023E0,6.292154312E0,-1.963305324E-1,7.518022656E-1
2.922681156E0,6.289760113E0,-1.987248063E-1,7.996878028E-1
2.924682489E0,6.251451492E0,-1.843591630E-1,8.834874034E-1
2.926683455E0,6.239480019E0,-1.867534369E-1,9.074301720E-1
2.928685088E0,6.203566074E0,-1.819648892E-1,9.960182905E-1
2.930686421E0,6.205960274E0,-1.795706153E-1,1.058269501E0
2.932687754E0,6.177228928E0,-1.747820675E-1,1.084606528E0
2.934688554E0,6.182017326E0,-1.580221355E-1,1.144463301E0
2.936689820E0,6.172440529E0,-1.221080124E-1,1.204320192E0
2.938691153E0,6.177228928E0,-1.101366431E-1,1.204320192E0
2.940693353E0,6.205960274E0,-1.101366431E-1,1.230657220E0
2.942694686E0,6.241874218E0,-6.943397224E-2,1.240234375E0
2.944696019E0,6.272999763E0,-5.027977005E-2,1.259388566E0
2.946697385E0,6.320885658E0,-1.197137404E-2,1.271359921E0
2.948698718E0,6.359193802E0,4.788549617E-2,1.278542757E0
2.950699718E0,6.404685020E0,5.027977005E-2,1.273754239E0
2.952701051E0,6.474119186E0,8.379961550E-2,1.312062621E0
2.954702384E0,6.505244732E0,9.816526622E-2,1.319245458E0
2.956703717E0,6.593832970E0,1.699935049E-1,1.343188167E0
2.958705050E0,6.689603806E0,2.298503816E-1,1.350371003E0
2.960706316E0,6.732700825E0,2.633702159E-1,1.340793848E0
2.962707682E0,6.814105988E0,3.328042030E-1,1.355159521E0
2.964708982E0,6.900300026E0,3.735068738E-1,1.386285067E0
2.966710315E0,6.943397045E0,4.046324492E-1,1.379102230E0
2.968711681E0,7.053533554E0,4.525179267E-1,1.381496549E0
2.970713014E0,7.173247337E0,5.051919818E-1,1.374313712E0
2.972714347E0,7.213950157E0,5.315290093E-1,1.371919513E0
2.974715713E0,7.319298267E0,5.865973234E-1,1.357553840E0
2.976717046E0,7.383943558E0,6.392713785E-1,1.347976685E0
2.978718379E0,7.467742920E0,6.656084061E-1,1.316851139E0
2.980719045E0,7.563514233E0,6.847625971E-1,1.268965602E0
2.982720611E0,7.611399651E0,7.087053657E-1,1.245022893E0
2.984721944E0,7.714353561E0,7.446194887E-1,1.201925993E0
2.986723610E0,7.817307472E0,7.877163887E-1,1.144463301E0
2.988724876E0,7.872375488E0,7.901107073E-1,1.139674783E0
2.990726209E0,7.953781128E0,8.212362528E-1,1.101366401E0
2.992727575E0,8.037580490E0,8.356019258E-1,1.048692346E0
2.994728908E0,8.083071709E0,8.379961848E-1,1.017566800E0
2.996730308E0,8.164477348E0,8.547561169E-1,9.457385540E-1
2.998731674E0,8.221940041E0,8.643332124E-1,9.194015265E-1
3.000732440E0,8.300951004E0,8.667274714E-1,8.475732803E-1
3.002733773E0,8.360807419E0,8.786988258E-1,7.925049663E-1
3.004735139E0,8.411087036E0,8.930644989E-1,7.685621977E-1
3.006736472E0,8.478127480E0,9.098244309E-1,7.182824612E-1
3.008737805E0,8.523618698E0,9.194015265E-1,6.847625971E-1
3.010739505E0,8.554743767E0,9.194015265E-1,6.536370516E-1
3.012740838E0,8.619389534E0,9.409499764E-1,6.105400920E-1
3.014742171E0,8.672063828E0,9.553156495E-1,5.865973234E-1
3.016743537E0,8.710371971E0,9.672870040E-1,5.626545548E-1
3.018744870E0,8.748680115E0,9.553156495E-1,5.315290093E-1
3.020746970E0,8.796566010E0,9.529213905E-1,5.243461728E-1
3.025365723E0,8.794171333E0,9.577099085E-1,5.219519138E-1
3.027367089E0,8.849239349E0,9.433442950E-1,5.027977228E-1
3.029368422E0,8.854028702E0,9.337671995E-1,5.219519138E-1
3.031369755E0,8.873182297E0,9.217957854E-1,5.099805593E-1
3.033371088E0,8.889942169E0,8.930644989E-1,5.243461728E-1
3.035372421E0,8.901913643E0,8.595446348E-1,5.315290093E-1
3.037373754E0,8.909096718E0,8.236305118E-1,5.315290093E-1
3.039375087E0,8.952193260E0,7.948992252E-1,5.650488734E-1
3.041376453E0,8.966559410E0,7.733507752E-1,5.770202279E-1
3.043377786E0,9.012050629E0,7.781392932E-1,6.273000240E-1
3.045379152E0,9.031204224E0,7.039167881E-1,6.440598965E-1
3.047380518E0,9.062330246E0,7.063110471E-1,6.703969240E-1
3.049381851E0,9.081484795E0,6.656084061E-1,6.895511150E-1
3.051383251E0,9.107821465E0,6.320885420E-1,6.967339516E-1
3.053384617E0,9.203592300E0,5.674431324E-1,7.087053657E-1
3.055385950E0,9.234718323E0,5.626545548E-1,7.374366522E-1
3.057387283E0,9.275420189E0,5.411061049E-1,7.398309112E-1
3.059388649E0,9.340065956E0,5.051919818E-1,7.637736797E-1
3.061389982E0,9.443019867E0,4.668835998E-1,7.805336118E-1
3.063391315E0,9.469356537E0,4.309694767E-1,7.853221297E-1
3.065392681E0,9.536396980E0,3.806896806E-1,7.996878028E-1
3.067394014E0,9.584281921E0,3.615354896E-1,7.925049663E-1
3.069395347E0,9.636956215E0,3.351984620E-1,8.116591573E-1
3.071396713E0,9.720755577E0,3.088614643E-1,8.356019258E-1
3.073398046E0,9.756669998E0,2.705530524E-1,8.356019258E-1
3.075399379E0,9.840469360E0,2.442160249E-1,8.595446348E-1
3.077400745E0,9.917086601E0,1.939362586E-1,8.763045669E-1
3.079402078E0,9.964971542E0,1.867534369E-1,8.763045669E-1
3.081403411E0,1.007271385E1,1.652049571E-1,9.146129489E-1
3.083404077E0,1.014933109E1,1.149251908E-1,9.433442950E-1
3.085405710E0,1.019721603E1,1.221080124E-1,9.577099085E-1
3.087407043E0,1.027862167E1,1.029538140E-1,9.936240315E-1
3.089408409E0,1.036721039E1,5.985686928E-2,1.019961119E0
3.091409742E0,1.040551853E1,5.267404765E-2,1.039115310E0
3.093410742E0,1.047255802E1,4.549122229E-2,1.055875182E0
3.095412108E0,1.054917526E1,3.830839694E-2,1.060663700E0
3.097413441E0,1.057790565E1,3.351984918E-2,1.077423692E0
3.099414774E0,1.065212822E1,1.436564885E-2,1.053480864E0
3.101416107E0,1.067607117E1,4.788549617E-3,1.017566800E0
3.103418140E0,1.069522572E1,0.000000000E0,9.577099085E-1
3.105419140E0,1.071198559E1,-1.675992459E-2,8.810931444E-1
3.107420473E0,1.070719719E1,-1.675992459E-2,8.595446348E-1
3.109421806E0,1.071437931E1,-1.915419847E-2,7.613793612E-1
3.111422806E0,1.069283104E1,-2.633702382E-2,6.584255695E-1
3.113424139E0,1.069522572E1,-2.394274808E-2,5.889915824E-1
3.115425472E0,1.067846584E1,-3.591412306E-2,5.363175869E-1
3.117426838E0,1.067128277E1,-5.746259540E-2,4.525179267E-1
3.119428171E0,1.064733982E1,-7.182824612E-2,4.142095447E-1
3.121429504E0,1.062818623E1,-6.703969836E-2,3.663240373E-1
3.123430870E0,1.061142635E1,-5.746259540E-2,3.328042030E-1
3.125432203E0,1.059945488E1,-8.140534163E-2,2.873129845E-1
3.127433536E0,1.056593513E1,-7.422251999E-2,2.106961906E-1
3.129434902E0,1.055156898E1,-8.619388938E-2,1.915419847E-1
3.131436235E0,1.054438591E1,-9.098244458E-2,1.268965602E-1
3.133439701E0,1.053480911E1,-1.101366431E-1,4.788549617E-2
3.135441067E0,1.054199219E1,-1.053480953E-1,-9.577099234E-3
3.137442333E0,1.055156898E1,-1.125309169E-1,-7.661679387E-2
3.139443599E0,1.055635738E1,-1.388679445E-1,-1.316851079E-1
3.141444965E0,1.057311726E1,-1.604164094E-1,-1.795706153E-1
3.143446298E0,1.057551193E1,-1.699935049E-1,-1.987248063E-1
3.145447631E0,1.061142635E1,-1.891477108E-1,-2.442160249E-1
3.147448997E0,1.062579155E1,-2.011190802E-1,-2.729473412E-1
3.149450330E0,1.068564892E1,-2.154847383E-1,-2.849186957E-1
3.151451663E0,1.072156239E1,-2.274561077E-1,-2.849186957E-1
3.153453363E0,1.078620815E1,-2.298503816E-1,-2.609759569E-1
3.155454696E0,1.087000751E1,-2.490045726E-1,-1.867534369E-1
3.157456162E0,1.092747021E1,-2.633702159E-1,-1.364736706E-1
3.159457528E0,1.105436707E1,-2.609759569E-1,-8.379961550E-2
3.161458861E0,1.119802284E1,-2.944957912E-1,-3.351984918E-2
3.163460194E0,1.128182316E1,-2.921015322E-1,-7.182824425E-3
3.165461860E0,1.144942188E1,-3.208328187E-1,2.633702382E-2
3.167465893E0,1.163138676E1,-3.351984620E-1,7.422251999E-2
3.169467226E0,1.172476387E1,-3.591412306E-1,9.098244458E-2
3.171468926E0,1.190672874E1,-3.759011328E-1,8.379961550E-2
3.173470259E0,1.208629894E1,-3.711125851E-1,4.070267081E-2
3.175471592E0,1.217488766E1,-3.926610649E-1,3.830839694E-2
3.177472925E0,1.233051491E1,-4.166038036E-1,2.394274808E-3
3.179474258E0,1.242628670E1,-4.333637357E-1,-2.633702382E-2
3.181475558E0,1.257952023E1,-4.549122155E-1,-5.985686928E-2
3.183477024E0,1.271120453E1,-4.764606953E-1,-1.388679445E-1
3.185478357E0,1.276387882E1,-5.099805593E-1,-1.508393139E-1
3.187479723E0,1.288119888E1,-5.363175869E-1,-2.250618339E-1
3.189481056E0,1.298894119E1,-5.770202279E-1,-2.777358890E-1
3.191482389E0,1.304640388E1,-6.033572555E-1,-3.064671755E-1
3.195482955E0,1.315893459E1,-6.871568561E-1,-3.375927508E-1
3.197484355E0,1.320203114E1,-7.039167881E-1,-3.878725171E-1
3.199485788E0,1.322836876E1,-7.015225291E-1,-4.022381604E-1
3.201487121E0,1.326667690E1,-6.967339516E-1,-3.591412306E-1
3.203488454E0,1.330259037E1,-6.799740195E-1,-3.256213665E-1
3.205489820E0,1.336244774E1,-6.775797606E-1,-2.729473412E-1
3.207491153E0,1.337920761E1,-6.464542150E-1,-2.298503816E-1
3.209492419E0,1.341751575E1,-6.129343510E-1,-1.508393139E-1
3.211493785E0,1.347019005E1,-5.411061049E-1,-7.182824612E-2
3.213495118E0,1.350370979E1,-5.051919818E-1,-3.830839694E-2
3.215496451E0,1.353962421E1,-4.405465722E-1,6.225114316E-2
3.217497684E0,1.357793236E1,-3.471698463E-1,1.843591630E-1
3.219499017E0,1.358272076E1,-3.280156553E-1,2.561874092E-1
3.221500350E0,1.364257812E1,-2.561874092E-1,4.022381604E-1
3.223501016E0,1.367130947E1,-2.274561077E-1,4.620950520E-1
3.225502349E0,1.370722294E1,-1.819648892E-1,6.033572555E-1
3.229502348E0,1.374792576E1,-1.268965602E-1,7.733507752E-1
3.231503681E0,1.377905178E1,-1.580221355E-1,8.906702399E-1
3.233505014E0,1.383411980E1,-1.939362586E-1,9.960182905E-1
3.235506380E0,1.388439941E1,-2.035133541E-1,1.034326673E0
3.237507713E0,1.393946838E1,-2.466102988E-1,1.130097747E0
3.239509046E0,1.398256493E1,-2.944957912E-1,1.194743156E0
3.241510446E0,1.400411320E1,-3.256213665E-1,1.209108829E0
3.243511646E0,1.406397057E1,-4.357580245E-1,1.240234375E0
3.245512979E0,1.409030724E1,-5.123748183E-1,1.247417212E0
3.247514312E0,1.412143326E1,-5.889915824E-1,1.247417212E0
3.249515645E0,1.413340378E1,-6.727912426E-1,1.259388566E0
3.251517011E0,1.414058685E1,-7.230709791E-1,1.254600048E0
3.253518344E0,1.413819313E1,-8.499675393E-1,1.228263021E0
3.255519610E0,1.418128967E1,-9.840469360E-1,1.154040456E0
3.257520976E0,1.423396397E1,-1.053480864E0,1.108549237E0
3.259522309E0,1.428184891E1,-1.197137356E0,1.022355318E0
3.261523642E0,1.427706051E1,-1.312062621E0,9.002473354E-1
3.263525008E0,1.426030064E1,-1.381496549E0,8.379961848E-1
3.265526341E0,1.424593544E1,-1.556278586E0,7.422251701E-1
3.267527674E0,1.421959782E1,-1.714300752E0,6.823683381E-1
3.269529107E0,1.419565487E1,-1.769369125E0,5.435003638E-1
3.271530440E0,1.407354736E1,-1.893871427E0,4.261809289E-1
3.273531706E0,1.398495960E1,-1.944151163E0,3.782954216E-1
3.275533006E0,1.372637749E1,-2.015979290E0,2.705530524E-1
3.277534139E0,1.347976685E1,-2.073441982E0,2.035133541E-1
3.279535405E0,1.335047626E1,-2.092596292E0,1.819648892E-1
3.281536705E0,1.307513428E1,-2.116539001E0,1.771763414E-1
3.283538605E0,1.286204433E1,-2.116539001E0,2.250618339E-1
3.285539938E0,1.279261017E1,-2.078230619E0,2.322446555E-1
3.287541304E0,1.268007946E1,-2.042316437E0,3.160442710E-1
3.289542570E0,1.263698196E1,-1.984853864E0,3.567469418E-1
3.291543903E0,1.267529106E1,-1.958516836E0,3.950553536E-1
3.293545269E0,1.280697632E1,-1.886688590E0,4.620950520E-1
3.295546602E0,1.290514088E1,-1.843591571E0,4.932205975E-1
3.297547935E0,1.311583710E1,-1.795706153E0,5.842030644E-1
3.299549301E0,1.335287094E1,-1.790917516E0,6.608198285E-1
3.301550367E0,1.348455620E1,-1.786128998E0,7.206767201E-1
3.303551700E0,1.370004082E1,-1.819648862E0,7.829278708E-1
3.305553066E0,1.382214832E1,-1.805283189E0,9.026415944E-1
3.307554399E0,1.386285114E1,-1.795706153E0,9.577099085E-1
3.309555399E0,1.392510223E1,-1.805283189E0,1.043903828E0
3.311556732E0,1.390594769E1,-1.766974807E0,1.154040456E0
3.313558065E0,1.390115929E1,-1.735849261E0,1.189954638E0
3.315559131E0,1.386045647E1,-1.671203852E0,1.218685865E0
3.317560464E0,1.386524582E1,-1.628106833E0,1.254600048E0
3.319561797E0,1.380299473E1,-1.594586968E0,1.278542757E0
3.321563163E0,1.370004082E1,-1.520364523E0,1.271359921E0
3.323564496E0,1.365933800E1,-1.539518714E0,1.235445857E0
3.325565829E0,1.352286434E1,-1.558672905E0,1.151646137E0
3.327567195E0,1.332892799E1,-1.592192769E0,1.031932473E0
3.329568528E0,1.320921421E1,-1.618529797E0,9.792584181E-1
3.331569861E0,1.296020985E1,-1.654443860E0,8.308133483E-1
3.333571294E0,1.268247414E1,-1.673598051E0,6.847625971E-1
3.335572694E0,1.253881741E1,-1.687963724E0,6.368771195E-1
3.337574227E0,1.226108170E1,-1.695146561E0,5.027977228E-1
3.339582960E0,1.199292278E1,-1.714300752E0,4.046324492E-1
3.341584360E0,1.186123753E1,-1.699935079E0,3.639297783E-1
3.343585126E0,1.160505009E1,-1.711906433E0,3.328042030E-1
3.345586492E0,1.148773098E1,-1.699935079E0,3.184385598E-1
3.347587825E0,1.124830341E1,-1.707117915E0,3.040728867E-1
3.349589225E0,1.103760719E1,-1.687963724E0,3.208328187E-1
3.351590591E0,1.091789341E1,-1.687963724E0,3.423812985E-1
3.353591924E0,1.074311066E1,-1.644866824E0,4.213923812E-1
3.355593257E0,1.055396366E1,-1.606558442E0,4.860377908E-1
3.357594623E0,1.046776962E1,-1.594586968E0,5.147690773E-1
3.359595956E0,1.029777622E1,-1.549095750E0,5.913859010E-1
3.361597556E0,1.015890789E1,-1.489238977E0,6.584255695E-1
3.363598922E0,1.008708000E1,-1.455719113E0,6.919454336E-1
3.365600255E0,9.964971542E0,-1.388679385E0,7.661679387E-1
3.367601588E0,9.912297249E0,-1.340793848E0,8.068706393E-1
3.369603288E0,9.794978142E0,-1.312062621E0,8.954587579E-1
3.371604621E0,9.708784103E0,-1.245022893E0,9.696813226E-1
3.373605954E0,9.658504486E0,-1.201925993E0,9.864411950E-1
3.375607654E0,9.574705124E0,-1.149251938E0,1.065452337E0
3.377608987E0,9.512454033E0,-1.103760719E0,1.125309110E0
3.379610320E0,9.483722687E0,-1.065452337E0,1.146857619E0
3.381611653E0,9.387951851E0,-1.017566800E0,1.225868702E0
3.383612986E0,9.340065956E0,-1.012778282E0,1.273754239E0
3.385614319E0,9.308940887E0,-1.010383964E0,1.316851139E0
3.387615652E0,9.258660316E0,-9.888355136E-1,1.362342358E0
3.389617252E0,9.222746849E0,-9.744698405E-1,1.438959122E0
3.391618918E0,9.225140572E0,-9.744698405E-1,1.472478986E0
3.393620184E0,9.170072556E0,-9.984126091E-1,1.513181686E0
3.395621184E0,9.165284157E0,-1.015172482E0,1.541913033E0
3.397622550E0,9.162889481E0,-1.051086664E0,1.585009933E0
3.401617916E0,9.119792938E0,-1.134886265E0,1.637683988E0
3.403619282E0,9.105426788E0,-1.168406129E0,1.678386688E0
3.405620615E0,9.098244667E0,-1.254600048E0,1.692752242E0
3.407621948E0,9.119792938E0,-1.295302629E0,1.690358043E0
3.409623314E0,9.115004539E0,-1.350371003E0,1.683175206E0
3.411624580E0,9.100638390E0,-1.412622094E0,1.659232497E0
3.413625913E0,9.141341209E0,-1.501210332E0,1.606558442E0
3.415627279E0,9.141341209E0,-1.529941559E0,1.551490068E0
3.417628612E0,9.122186661E0,-1.568249941E0,1.532335877E0
3.419629945E0,9.136552811E0,-1.625712633E0,1.455719113E0
3.421631311E0,9.131764412E0,-1.707117915E0,1.369525194E0
3.423632644E0,9.136552811E0,-1.738243461E0,1.328822494E0
3.425633977E0,9.153312683E0,-1.781340480E0,1.235445857E0
3.427635343E0,9.165284157E0,-1.805283189E0,1.144463301E0
3.429636676E0,9.179649353E0,-1.853168726E0,1.096577883E0
3.431638009E0,9.177255630E0,-1.874717116E0,1.010383964E0
3.433639375E0,9.184437752E0,-1.893871427E0,9.217957854E-1
3.435640708E0,9.186832428E0,-1.884294271E0,8.882759809E-1
3.437642041E0,9.186832428E0,-1.884294271E0,8.260248303E-1
3.439643407E0,9.158101082E0,-1.896265626E0,7.781392932E-1
3.441644740E0,9.141341209E0,-1.896265626E0,7.134938836E-1
3.443646073E0,9.110215187E0,-1.881899953E0,6.392713785E-1
3.445647439E0,9.088666916E0,-1.872322917E0,6.344828010E-1
3.447648772E0,9.031204224E0,-1.862745762E0,5.889915824E-1
3.449649838E0,8.952193260E0,-1.838803053E0,5.458946824E-1
3.451650871E0,8.930644989E0,-1.831620216E0,5.530774593E-1
3.453652271E0,8.863605499E0,-1.786128998E0,5.291347504E-1
3.455653937E0,8.815719604E0,-1.764580488E0,5.363175869E-1
3.457655270E0,8.798959732E0,-1.757397652E0,5.387118459E-1
3.459656603E0,8.739103317E0,-1.723877907E0,5.387118459E-1
3.461657969E0,8.674457550E0,-1.680780888E0,5.794144869E-1
3.463659302E0,8.636149406E0,-1.637683988E0,5.913859010E-1
3.465660635E0,8.576292038E0,-1.611346960E0,6.249057055E-1
3.467661935E0,8.557138443E0,-1.585009933E0,6.344828010E-1
3.469663268E0,8.497281075E0,-1.520364523E0,6.560313106E-1
3.471664668E0,8.427846909E0,-1.450930476E0,6.967339516E-1
3.473666034E0,8.382355690E0,-1.386285067E0,7.326480746E-1
3.475667167E0,8.396721840E0,-1.345582485E0,7.518022656E-1
3.477668500E0,8.377567291E0,-1.304879785E0,7.709565163E-1
3.479669866E0,8.360807419E0,-1.266571403E0,7.805336118E-1
3.481671199E0,8.288979530E0,-1.158828974E0,7.972934842E-1
3.483672532E0,8.174054146E0,-1.039115310E0,8.284190893E-1
3.485673898E0,8.130957603E0,-9.960182905E-1,8.403904438E-1
3.487675231E0,8.085466385E0,-9.385557175E-1,8.667274714E-1
3.489676564E0,8.075888634E0,-8.523618579E-1,8.739103079E-1
3.491677930E0,8.032792091E0,-8.188419938E-1,8.739103079E-1
3.493679263E0,7.989695072E0,-7.398309112E-1,8.882759809E-1
3.495680596E0,7.951386452E0,-7.254652381E-1,9.050358534E-1
3.497681962E0,7.896318436E0,-6.943396926E-1,9.337671995E-1
3.499683295E0,7.858009815E0,-6.847625971E-1,9.313728809E-1
3.501684628E0,7.831672668E0,-6.775797606E-1,9.361614585E-1
3.503685994E0,7.786181450E0,-6.632141471E-1,9.433442950E-1
3.505687327E0,7.699987888E0,-6.273000240E-1,9.505270720E-1
3.507688660E0,7.661679268E0,-6.368771195E-1,9.481328130E-1
3.509690026E0,7.611399651E0,-6.225114465E-1,9.481328130E-1
3.511691359E0,7.539571285E0,-6.009629965E-1,9.337671995E-1
3.513692692E0,7.491685867E0,-6.273000240E-1,9.409499764E-1
3.515694058E0,7.427040577E0,-6.464542150E-1,9.217957854E-1
3.517695324E0,7.395915031E0,-6.344828010E-1,9.146129489E-1
3.519696657E0,7.331269264E0,-6.105400920E-1,8.954587579E-1
3.521697923E0,7.264229774E0,-6.296942830E-1,8.547561169E-1
3.523699256E0,7.230710030E0,-6.392713785E-1,8.308133483E-1
3.525700589E0,7.182824612E0,-6.536370516E-1,7.948992252E-1
3.527701989E0,7.127756119E0,-6.775797606E-1,7.518022656E-1
3.529703322E0,7.101418972E0,-6.847625971E-1,7.230709791E-1
3.531704688E0,7.020013809E0,-7.182824612E-1,6.703969240E-1
3.533706021E0,6.984099388E0,-7.374366522E-1,6.225114465E-1
3.535707554E0,6.962551117E0,-7.613793612E-1,6.177229285E-1
3.537708920E0,6.895511627E0,-7.972934842E-1,5.626545548E-1
3.539710253E0,6.873962879E0,-7.972934842E-1,5.219519138E-1
3.541711586E0,6.828471661E0,-8.499675393E-1,4.716721475E-1
3.543712952E0,6.785374641E0,-8.930644989E-1,4.597007632E-1
3.545714285E0,6.756643295E0,-9.002473354E-1,4.333637357E-1
3.547715618E0,6.703969479E0,-9.601042271E-1,4.118152559E-1
3.549716984E0,6.651295185E0,-1.012778282E0,3.902668059E-1
3.551718317E0,6.627352715E0,-1.051086664E0,3.878725171E-1
3.553719650E0,6.574678421E0,-1.075029373E0,3.447755575E-1
3.555721016E0,6.507638931E0,-1.134886265E0,3.423812985E-1
3.557722349E0,6.474119186E0,-1.175588965E0,3.471698463E-1
3.559723615E0,6.431022167E0,-1.221080184E0,3.280156553E-1
3.561724981E0,6.361588001E0,-1.288119793E0,3.160442710E-1
3.563726314E0,6.344828129E0,-1.316851139E0,3.543526828E-1
3.565727647E0,6.287365437E0,-1.355159521E0,3.471698463E-1
3.567729013E0,6.277788639E0,-1.369525194E0,3.759011328E-1
3.569730346E0,6.205960274E0,-1.467690468E0,3.830839694E-1
3.571731679E0,6.160469055E0,-1.520364523E0,4.309694767E-1
3.573733045E0,6.136526108E0,-1.527547359E0,4.333637357E-1
3.575734378E0,6.105400562E0,-1.582615614E0,4.620950520E-1
3.577735778E0,6.059909344E0,-1.652049661E0,4.908263385E-1
3.579737078E0,6.069486618E0,-1.666415215E0,5.147690773E-1
3.581738478E0,6.079063892E0,-1.685569525E0,5.506832004E-1
3.583739811E0,6.074275017E0,-1.719089270E0,5.889915824E-1
3.585741177E0,6.074275017E0,-1.733454943E0,6.344828010E-1
3.587742510E0,6.112583637E0,-1.723877907E0,6.847625971E-1
3.589743843E0,6.138920784E0,-1.757397652E0,7.158881426E-1
3.591749943E0,6.170046329E0,-1.769369125E0,7.685621977E-1
3.593751276E0,6.229903221E0,-1.766974807E0,8.164477348E-1
3.595752609E0,6.277788639E0,-1.755003452E0,8.379961848E-1
3.597753875E0,6.361588001E0,-1.743032098E0,8.978530765E-1
3.599755208E0,6.457359314E0,-1.738243461E0,9.577099085E-1
3.601756574E0,6.502850533E0,-1.728666425E0,9.864411950E-1
3.603757907E0,6.601015568E0,-1.690358043E0,1.048692346E0
3.605759240E0,6.687209606E0,-1.654443860E0,1.134886265E0
3.607760606E0,6.775797844E0,-1.640078187E0,1.173194647E0
3.609761872E0,6.854808807E0,-1.620923996E0,1.235445857E0
3.611763205E0,6.926637173E0,-1.582615614E0,1.276148438E0
3.613764571E0,7.055927753E0,-1.563461423E0,1.336005330E0
3.615765904E0,7.158881664E0,-1.525153041E0,1.391073704E0
3.617767237E0,7.237892628E0,-1.515576005E0,1.426987767E0
3.619768670E0,7.352818012E0,-1.477267504E0,1.458113313E0
3.621770003E0,7.470137596E0,-1.441353440E0,1.489238977E0
3.623771336E0,7.539571285E0,-1.412622094E0,1.505998850E0
3.625772702E0,7.656890869E0,-1.376708031E0,1.525153041E0
3.627774035E0,7.776604652E0,-1.350371003E0,1.558672905E0
3.629775368E0,7.841249943E0,-1.343188167E0,1.570644259E0
3.631776734E0,7.958569527E0,-1.302485466E0,1.565855742E0
3.633778067E0,8.066311836E0,-1.249811411E0,1.565855742E0
3.635779400E0,8.109408379E0,-1.223474383E0,1.577827096E0
3.637780766E0,8.214756966E0,-1.185166001E0,1.570644259E0
3.639782166E0,8.238699913E0,-1.166011810E0,1.573038578E0
3.641783499E0,8.305739403E0,-1.142069101E0,1.558672905E0
3.643784865E0,8.365595818E0,-1.139674783E0,1.532335877E0
3.645786198E0,8.377567291E0,-1.132491946E0,1.520364523E0
3.647787531E0,8.437424660E0,-1.113337755E0,1.484450340E0
3.649788897E0,8.449396133E0,-1.098972082E0,1.419804931E0
3.653786730E0,8.456578255E0,-1.101366401E0,1.333611012E0
3.655788096E0,8.442213058E0,-1.103760719E0,1.302485466E0
3.657789496E0,8.435029984E0,-1.094183564E0,1.261782765E0
3.659790829E0,8.411087036E0,-1.103760719E0,1.209108829E0
3.661792162E0,8.415876389E0,-1.091789365E0,1.199531674E0
3.663793495E0,8.391933441E0,-1.101366401E0,1.149251938E0
3.665794795E0,8.367990494E0,-1.098972082E0,1.058269501E0
3.667796128E0,8.348835945E0,-1.094183564E0,1.022355318E0
3.669797528E0,8.336864471E0,-1.098972082E0,9.481328130E-1
3.671798894E0,8.300951004E0,-1.098972082E0,8.763045669E-1
3.673800227E0,8.288979530E0,-1.098972082E0,8.236305118E-1
3.675801560E0,8.253065109E0,-1.113337755E0,7.781392932E-1
3.677802926E0,8.209968567E0,-1.125309110E0,7.039167881E-1
3.679804259E0,8.181237221E0,-1.127703428E0,6.608198285E-1
3.681805592E0,8.111803055E0,-1.137280583E0,6.057515144E-1
3.683806958E0,8.049551964E0,-1.137280583E0,5.698373914E-1
3.685808291E0,8.035185814E0,-1.134886265E0,5.075862408E-1
3.687809624E0,7.946598053E0,-1.144463301E0,4.573064744E-1
3.689810990E0,7.913078308E0,-1.158828974E0,4.070267081E-1
3.691812323E0,7.858009815E0,-1.161223292E0,3.495641351E-1
3.693813656E0,7.788576126E0,-1.163617611E0,3.016786277E-1
3.695815022E0,7.752661705E0,-1.168406129E0,2.849186957E-1
3.697816355E0,7.695199013E0,-1.151646137E0,2.513988614E-1
3.699817688E0,7.668862343E0,-1.130097747E0,2.154847383E-1
3.701818988E0,7.649707794E0,-1.132491946E0,2.130904645E-1
3.703820321E0,7.577879906E0,-1.110943556E0,1.963305324E-1
3.705821654E0,7.522811413E0,-1.110943556E0,1.819648892E-1
3.707823020E0,7.503657341E0,-1.101366401E0,1.963305324E-1
3.709824353E0,7.460560322E0,-1.075029373E0,2.178790122E-1
3.711825753E0,7.434223175E0,-1.065452337E0,2.298503816E-1
3.713827119E0,7.381549358E0,-1.027143836E0,2.729473412E-1
3.715828452E0,7.360000610E0,-1.010383964E0,2.992843390E-1
3.717829752E0,7.343240738E0,-9.960182905E-1,3.040728867E-1
3.719831118E0,7.300143719E0,-9.792584181E-1,3.806896806E-1
3.721832451E0,7.269018173E0,-9.122186899E-1,4.525179267E-1
3.723833784E0,7.249864101E0,-8.834874034E-1,5.027977228E-1
3.725835184E0,7.223526955E0,-8.236305118E-1,5.482889414E-1
3.727836450E0,7.180429935E0,-7.709565163E-1,6.129343510E-1
3.729837783E0,7.175641537E0,-7.374366522E-1,6.416656375E-1
3.731839116E0,7.173247337E0,-6.680026650E-1,7.110996246E-1
3.733840449E0,7.156487465E0,-6.153286099E-1,7.518022656E-1
3.735841782E0,7.146910191E0,-5.842030644E-1,8.164477348E-1
3.737843115E0,7.134938717E0,-4.956148863E-1,8.715160489E-1
3.739845248E0,7.154093266E0,-4.285751879E-1,9.648927450E-1
3.741846581E0,7.161275864E0,-3.830839694E-1,9.888355136E-1
3.743848181E0,7.168458939E0,-3.160442710E-1,1.089395046E0
3.745849514E0,7.180429935E0,-2.753416002E-1,1.130097747E0
3.747850880E0,7.228315830E0,-2.035133541E-1,1.218685865E0
3.749852213E0,7.240286827E0,-1.292908341E-1,1.276148438E0
3.751853546E0,7.273807049E0,-1.053480953E-1,1.331216812E0
3.753854912E0,7.309720993E0,-4.070267081E-2,1.388679385E0
3.755856178E0,7.374366283E0,1.436564885E-2,1.443747759E0
3.757857444E0,7.400703430E0,4.549122229E-2,1.474873304E0
3.759858744E0,7.453377247E0,8.858817071E-2,1.537124395E0
3.761860077E0,7.455771923E0,1.005595401E-1,1.544307232E0
3.763861343E0,7.520417213E0,1.532335877E-1,1.599375606E0
3.765862643E0,7.580274105E0,1.891477108E-1,1.616135478E0
3.767863909E0,7.616188049E0,2.154847383E-1,1.630501151E0
3.769865242E0,7.644919395E0,2.322446555E-1,1.642472506E0
3.771866608E0,7.714353561E0,2.801301479E-1,1.647261024E0
3.773867941E0,7.771816254E0,2.777358890E-1,1.606558442E0
3.775869207E0,7.800547123E0,2.777358890E-1,1.616135478E0
3.777870607E0,7.850827217E0,2.921015322E-1,1.585009933E0
3.779871940E0,7.858009815E0,2.897072434E-1,1.549095750E0
3.781873273E0,7.893924236E0,2.729473412E-1,1.501210332E0
3.783874639E0,7.929838181E0,2.705530524E-1,1.484450340E0
3.785875639E0,7.958569527E0,2.394274771E-1,1.438959122E0
3.787877039E0,7.970541000E0,2.130904645E-1,1.386285067E0
3.789878405E0,7.989695072E0,1.747820675E-1,1.364736676E0
3.791879738E0,8.004060745E0,1.819648892E-1,1.357553840E0
3.793881071E0,8.016032219E0,1.292908341E-1,1.355159521E0
3.795882437E0,8.020820618E0,9.816526622E-2,1.374313712E0
3.797883770E0,8.044763565E0,3.351984918E-2,1.391073704E0
3.799884303E0,8.085466385E0,-9.577099234E-3,1.438959122E0
3.801885669E0,8.128562927E0,-4.788549617E-2,1.472478986E0
3.803886735E0,8.205180168E0,-1.125309169E-1,1.520364523E0
3.805887968E0,8.324893951E0,-1.795706153E-1,1.577827096E0
3.807889301E0,8.389538765E0,-2.130904645E-1,1.656838179E0
3.809890634E0,8.526012421E0,-2.825244367E-1,1.733454943E0
3.811891967E0,8.595446587E0,-3.256213665E-1,1.759791970E0
3.813893300E0,8.798959732E0,-4.166038036E-1,1.831620216E0
3.815894700E0,9.035993576E0,-5.004034638E-1,1.893871427E0
3.817896066E0,9.170072556E0,-5.554717779E-1,1.915419817E0
3.819897466E0,9.464568138E0,-6.632141471E-1,1.948939681E0
3.821898866E0,9.773429871E0,-7.709565163E-1,2.004008055E0
3.823900299E0,9.957788467E0,-8.284190893E-1,2.020767927E0
3.825901699E0,1.034805584E1,-9.194015265E-1,2.044710636E0
3.827903032E0,1.077184200E1,-1.027143836E0,2.073441982E0
3.829904398E0,1.099211597E1,-1.096577883E0,2.080624819E0
3.831905664E0,1.146378803E1,-1.177983165E0,2.099778891E0
3.833906930E0,1.194743156E1,-1.278542757E0,2.085413456E0
3.835908363E0,1.221080112E1,-1.321639657E0,2.063864946E0
3.837909696E0,1.270881081E1,-1.391073704E0,2.037527800E0
3.839911029E0,1.293866062E1,-1.395862222E0,2.032739401E0
3.841912329E0,1.332653332E1,-1.374313712E0,1.960911036E0
3.843913662E0,1.377665710E1,-1.371919513E0,1.869928598E0
3.845915328E0,1.405918121E1,-1.407833576E0,1.826831698E0
3.847916694E0,1.467690468E1,-1.462901950E0,1.735849261E0
3.849918027E0,1.523237610E1,-1.508393168E0,1.644866824E0
3.851919360E0,1.551729488E1,-1.510787368E0,1.585009933E0
3.853920660E0,1.603206444E1,-1.517970204E0,1.453324795E0
3.855921993E0,1.646303368E1,-1.503604531E0,1.379102230E0
3.857923326E0,1.662344933E1,-1.467690468E0,1.240234375E0
3.859924692E0,1.689879227E1,-1.367130876E0,1.084606528E0
3.861926025E0,1.698977470E1,-1.302485466E0,1.017566800E0
3.863927358E0,1.716216278E1,-1.166011810E0,8.643332124E-1
3.865928824E0,1.733933830E1,-1.048692346E0,7.110996246E-1
3.867930157E0,1.740877151E1,-9.816526771E-1,6.296942830E-1
3.869931490E0,1.747102356E1,-7.853221297E-1,4.980091453E-1
3.871932856E0,1.745426369E1,-5.626545548E-1,3.567469418E-1
3.873934122E0,1.742313766E1,-4.644893110E-1,2.944957912E-1
3.875935455E0,1.730102921E1,-2.633702159E-1,1.580221355E-1
3.877936855E0,1.703047752E1,-9.098244458E-2,9.577099234E-3
3.879938188E0,1.686048317E1,-1.436564885E-2,-4.788549617E-2
3.881939521E0,1.648937035E1,1.029538140E-1,-1.005595401E-1
3.883940854E0,1.628585815E1,1.628106833E-1,-1.125309169E-1
3.885942187E0,1.584770489E1,2.561874092E-1,-6.225114316E-2
3.887943620E0,1.539518738E1,3.136500120E-1,1.197137404E-2
3.889944953E0,1.517730808E1,3.375927508E-1,5.985686928E-2
3.891946353E0,1.477267551E1,3.735068738E-1,2.154847383E-1
3.893947786E0,1.446620846E1,4.046324492E-1,3.639297783E-1
3.895949119E0,1.432973480E1,4.166038036E-1,4.405465722E-1
3.897950452E0,1.405678749E1,4.237866402E-1,6.201171875E-1
3.899951818E0,1.382933140E1,4.285751879E-1,7.589851022E-1
3.901953218E0,1.371680069E1,4.237866402E-1,8.332076073E-1
3.903954551E0,1.355398941E1,4.453351200E-1,9.601042271E-1
3.905955917E0,1.349892139E1,4.716721475E-1,1.048692346E0
3.907957250E0,1.341512203E1,4.764606953E-1,1.204320192E0
3.909958583E0,1.332653332E1,4.788549542E-1,1.376708031E0
3.911959949E0,1.329540825E1,4.668835998E-1,1.477267504E0
3.913961349E0,1.325949383E1,4.764606953E-1,1.664021015E0
3.915966482E0,1.324512863E1,4.620950520E-1,1.860351562E0
3.917967848E0,1.325231075E1,4.573064744E-1,1.963305354E0
3.919969181E0,1.327146530E1,4.644893110E-1,2.200338602E0
3.921970514E0,1.328104210E1,4.453351200E-1,2.427794695E0
3.923971880E0,1.329540825E1,4.357580245E-1,2.521171331E0
3.925973213E0,1.332174492E1,4.261809289E-1,2.767781734E0
3.927974546E0,1.338399601E1,4.118152559E-1,3.002420664E0
3.929975912E0,1.340075588E1,4.094209969E-1,3.129317284E0
3.931977245E0,1.350131607E1,3.998439014E-1,3.340013266E0
3.933978645E0,1.354920101E1,4.022381604E-1,3.445361376E0
3.935980011E0,1.366412640E1,3.567469418E-1,3.624932051E0
3.937981344E0,1.384130287E1,3.064671755E-1,3.742251635E0
3.939982677E0,1.396341038E1,2.753416002E-1,3.787742853E0
3.941984043E0,1.426269531E1,2.035133541E-1,3.838022470E0
3.943985376E0,1.460507679E1,1.005595401E-1,3.847599506E0
3.945986709E0,1.475591564E1,5.027977005E-2,3.845205307E0
3.947988042E0,1.510548019E1,-6.943397224E-2,3.811685562E0
3.949989375E0,1.546462059E1,-1.843591630E-1,3.720703125E0
3.951990708E0,1.562024879E1,-2.322446555E-1,3.668029070E0
3.953992041E0,1.591474438E1,-3.735068738E-1,3.545921087E0
3.955993374E0,1.603924751E1,-4.357580245E-1,3.459727049E0
3.957994740E0,1.624515533E1,-5.818088055E-1,3.277762175E0
3.959996340E0,1.631698227E1,-7.110996246E-1,3.023969173E0
3.961997940E0,1.632416534E1,-7.925049663E-1,2.901860952E0
3.963999573E0,1.625473213E1,-8.882759809E-1,2.628913641E0
3.966000906E0,1.607276726E1,-9.984126091E-1,2.372726440E0
3.968002239E0,1.595784187E1,-1.031932473E0,2.253012657E0
3.970003605E0,1.564658546E1,-1.101366401E0,1.956122518E0
3.972004871E0,1.524674225E1,-1.098972082E0,1.721483588E0
3.974006204E0,1.502886295E1,-1.101366401E0,1.604164124E0
3.978005103E0,1.417410660E1,-9.936240315E-1,1.321639657E0
3.980006436E0,1.398017025E1,-9.577099085E-1,1.146857619E0
3.982007802E0,1.358511543E1,-8.188419938E-1,1.015172482E0
3.984009135E0,1.343667030E1,-7.494080067E-1,9.768640995E-1
3.986010235E0,1.312062550E1,-5.889915824E-1,8.954587579E-1
3.988011601E0,1.285007286E1,-3.902668059E-1,8.236305118E-1
3.990012934E0,1.273275375E1,-2.992843390E-1,7.996878028E-1
3.992014267E0,1.251966286E1,-1.125309169E-1,7.805336118E-1
3.994015633E0,1.234727478E1,4.549122229E-2,7.565908432E-1
3.996017233E0,1.226826382E1,1.125309169E-1,7.733507752E-1
3.998018866E0,1.213179016E1,2.346389294E-1,7.925049663E-1
4.000020232E0,1.198334503E1,3.615354896E-1,8.188419938E-1
4.002021232E0,1.190672874E1,4.142095447E-1,8.475732803E-1
4.004022565E0,1.176786041E1,4.932205975E-1,9.337671995E-1
4.006023931E0,1.171039772E1,5.171633363E-1,9.744698405E-1
4.008025264E0,1.155955887E1,5.865973234E-1,1.096577883E0
4.010026564E0,1.141829681E1,6.440598965E-1,1.216291547E0
4.012027930E0,1.136322784E1,6.751855016E-1,1.288119793E0
4.014029263E0,1.124830341E1,6.943396926E-1,1.438959122E0
4.016030596E0,1.113577175E1,7.063110471E-1,1.585009933E0
4.018031929E0,1.104239559E1,7.206767201E-1,1.659232497E0
4.020032995E0,1.080296803E1,7.422251701E-1,1.838803053E0
4.022034061E0,1.063536835E1,7.063110471E-1,2.001613855E0
4.024035127E0,1.055875206E1,7.134938836E-1,2.080624819E0
4.026036460E0,1.041749001E1,6.632141471E-1,2.226675510E0
4.028038526E0,1.029538155E1,6.129343510E-1,2.288926601E0
4.030039859E0,1.021637058E1,5.842030644E-1,2.384697676E0
4.032041259E0,1.011341667E1,5.171633363E-1,2.490045786E0
4.034042625E0,1.005116558E1,4.812492430E-1,2.540325642E0
4.036043958E0,9.931451797E0,4.070267081E-1,2.631308079E0
4.038045291E0,9.847652435E0,3.256213665E-1,2.691164970E0
4.040046657E0,9.794978142E0,2.873129845E-1,2.727078915E0
4.042047990E0,9.715967178E0,1.747820675E-1,2.774964571E0
4.044049323E0,9.622590065E0,7.422251999E-2,2.786935806E0
4.046050923E0,9.560338974E0,5.027977005E-2,2.801301479E0
4.048052256E0,9.495694160E0,-4.788549617E-3,2.801301479E0
4.050053589E0,9.409500122E0,-1.029538140E-1,2.772570133E0
4.052054955E0,9.373585701E0,-1.556278616E-1,2.770175934E0
4.054056288E0,9.280209541E0,-2.298503816E-1,2.703136206E0
4.056057354E0,9.234718323E0,-2.849186957E-1,2.686376333E0
4.058058420E0,9.146129608E0,-3.160442710E-1,2.636096478E0
4.060059753E0,9.067118645E0,-3.615354896E-1,2.554691315E0
4.062061419E0,9.026415825E0,-3.902668059E-1,2.513988495E0
4.064062785E0,8.956981659E0,-4.261809289E-1,2.434977531E0
4.066064118E0,8.880365372E0,-4.549122155E-1,2.351177931E0
4.068065451E0,8.827691078E0,-4.740664065E-1,2.312869549E0
4.070066851E0,8.727131844E0,-5.027977228E-1,2.245829821E0
4.072068184E0,8.652909279E0,-5.243461728E-1,2.152452946E0
4.074069484E0,8.573898315E0,-5.458946824E-1,2.099778891E0
4.076070850E0,8.526012421E0,-5.770202279E-1,2.056682110E0
4.078072183E0,8.480521202E0,-5.770202279E-1,2.037527800E0
4.080073516E0,8.391933441E0,-6.009629965E-1,1.939362645E0
4.082074882E0,8.300951004E0,-6.177229285E-1,1.884294271E0
4.084076215E0,8.243488312E0,-6.320885420E-1,1.855562925E0
4.086077548E0,8.150111198E0,-6.488484740E-1,1.790917516E0
4.088078181E0,8.073494911E0,-6.680026650E-1,1.714300752E0
4.090079447E0,8.020820618E0,-6.823683381E-1,1.685569525E0
4.092080747E0,7.881952763E0,-7.087053657E-1,1.628106833E0
4.094082013E0,7.762238979E0,-7.278595567E-1,1.544307232E0
4.096083279E0,7.714353561E0,-7.326480746E-1,1.513181686E0
4.098084579E0,7.582668304E0,-7.398309112E-1,1.467690468E0
4.100085845E0,7.470137596E0,-7.781392932E-1,1.438959122E0
4.102087111E0,7.422251701E0,-7.925049663E-1,1.383890867E0
4.104088477E0,7.302538395E0,-8.116591573E-1,1.300091267E0
4.106089810E0,7.252258301E0,-8.308133483E-1,1.271359921E0
4.108091143E0,7.154093266E0,-8.667274714E-1,1.223474383E0
4.110092509E0,7.075081825E0,-8.954587579E-1,1.170800328E0
4.112093842E0,7.055927753E0,-9.002473354E-1,1.149251938E0
4.114095175E0,6.972128391E0,-9.217957854E-1,1.137280583E0
4.116096541E0,6.881145954E0,-9.313728809E-1,1.110943556E0
4.118097874E0,6.828471661E0,-9.553156495E-1,1.079817891E0
4.120099207E0,6.799740314E0,-9.840469360E-1,1.075029373E0
4.122100573E0,6.751854897E0,-9.960182905E-1,1.024749637E0
4.124101906E0,6.730306625E0,-1.024749637E0,1.029538155E0
4.126103239E0,6.703969479E0,-1.055875182E0,9.984126091E-1
4.128104605E0,6.656084061E0,-1.075029373E0,9.912297726E-1
4.130106638E0,6.646506786E0,-1.103760719E0,9.912297726E-1
4.132107971E0,6.622564316E0,-1.120520592E0,9.768640995E-1
4.134109771E0,6.615381241E0,-1.127703428E0,9.577099085E-1
4.136111104E0,6.617775440E0,-1.125309110E0,9.624984860E-1
4.138112137E0,6.577073097E0,-1.170800328E0,9.744698405E-1
4.140113503E0,6.572284222E0,-1.180377483E0,9.984126091E-1
4.142114836E0,6.557918549E0,-1.199531674E0,1.031932473E0
4.144116169E0,6.536370277E0,-1.206714511E0,1.058269501E0
4.146117535E0,6.538764477E0,-1.225868702E0,1.065452337E0
4.148118868E0,6.526793003E0,-1.259388566E0,1.079817891E0
4.150120234E0,6.543552876E0,-1.256994247E0,1.101366401E0
4.152121634E0,6.550735950E0,-1.271359921E0,1.125309110E0
4.154123034E0,6.555524349E0,-1.283331275E0,1.149251938E0
4.156124434E0,6.543552876E0,-1.292908430E0,1.149251938E0
4.158125834E0,6.548341751E0,-1.328822494E0,1.185166001E0
4.160127234E0,6.560312748E0,-1.331216812E0,1.187560320E0
4.162128634E0,6.550735950E0,-1.328822494E0,1.187560320E0
4.164129967E0,6.610592842E0,-1.343188167E0,1.173194647E0
4.166131300E0,6.636929989E0,-1.355159521E0,1.168406129E0
4.168132666E0,6.658478260E0,-1.357553840E0,1.189954638E0
4.170133999E0,6.682421207E0,-1.364736676E0,1.156434774E0
4.172135332E0,6.691998005E0,-1.333611012E0,1.127703428E0
4.174136698E0,6.701575279E0,-1.324033976E0,1.106154919E0
4.176138031E0,6.720729351E0,-1.338399649E0,1.091789365E0
4.178139364E0,6.718335152E0,-1.345582485E0,1.082212210E0
4.180140730E0,6.742278099E0,-1.352765322E0,1.048692346E0
4.182142063E0,6.754249096E0,-1.328822494E0,9.888355136E-1
4.184143396E0,6.754249096E0,-1.312062621E0,9.696813226E-1
4.186144929E0,6.751854897E0,-1.288119793E0,9.265843630E-1
4.188146262E0,6.775797844E0,-1.228263021E0,8.786988258E-1
4.190146895E0,6.773403645E0,-1.223474383E0,8.475732803E-1
4.192148261E0,6.775797844E0,-1.161223292E0,8.356019258E-1
4.194149194E0,6.768614769E0,-1.106154919E0,8.044763207E-1
4.196150527E0,6.759037971E0,-1.077423692E0,8.068706393E-1
4.198151860E0,6.773403645E0,-1.027143836E0,7.948992252E-1
4.200153193E0,6.797346115E0,-9.648927450E-1,7.853221297E-1
4.202154526E0,6.778192043E0,-9.289786220E-1,8.020820618E-1
4.204155892E0,6.804529190E0,-8.427847624E-1,8.212362528E-1
4.206157225E0,6.811711788E0,-8.236305118E-1,8.236305118E-1
4.208158791E0,6.802134514E0,-7.661679387E-1,8.427847624E-1
4.210160191E0,6.802134514E0,-7.446194887E-1,8.475732803E-1
4.212161524E0,6.794951916E0,-6.991282701E-1,8.547561169E-1
4.214162857E0,6.797346115E0,-6.392713785E-1,8.786988258E-1
4.216164223E0,6.782980442E0,-6.057515144E-1,8.810931444E-1
4.218165556E0,6.785374641E0,-5.674431324E-1,8.715160489E-1
4.220167256E0,6.773403645E0,-5.291347504E-1,8.643332124E-1
4.222168622E0,6.780586243E0,-5.147690773E-1,8.763045669E-1
4.224169955E0,6.790163517E0,-4.980091453E-1,8.906702399E-1
4.226171288E0,6.756643295E0,-4.692778587E-1,9.050358534E-1
4.228172621E0,6.742278099E0,-4.716721475E-1,9.050358534E-1
4.230173954E0,6.747066498E0,-4.716721475E-1,9.170072675E-1
4.232175287E0,6.773403645E0,-4.668835998E-1,9.553156495E-1
4.234176620E0,6.780586243E0,-4.501236677E-1,9.648927450E-1
4.236177953E0,6.809317589E0,-4.740664065E-1,1.029538155E0
4.238179319E0,6.821289062E0,-4.764606953E-1,1.046298146E0
4.240180585E0,6.852414608E0,-4.549122155E-1,1.060663700E0
4.242181918E0,6.885934353E0,-4.668835998E-1,1.084606528E0
4.244183284E0,6.924242973E0,-4.620950520E-1,1.132491946E0
4.246184450E0,6.950579643E0,-4.740664065E-1,1.161223292E0
4.248185783E0,7.020013809E0,-4.860377908E-1,1.197137356E0
4.250187149E0,7.051139355E0,-5.027977228E-1,1.216291547E0
4.252188149E0,7.122967720E0,-5.339232683E-1,1.278542757E0
4.254189482E0,7.194795609E0,-5.387118459E-1,1.345582485E0
4.256190848E0,7.225921154E0,-5.530774593E-1,1.367130876E0
4.258192514E0,7.314509392E0,-5.722316504E-1,1.450930476E0
4.260193847E0,7.388731956E0,-5.770202279E-1,1.515576005E0
4.262201347E0,7.427040577E0,-5.961744189E-1,1.546701550E0
4.264202680E0,7.506051540E0,-6.033572555E-1,1.606558442E0
4.266204013E0,7.585062504E0,-6.225114465E-1,1.661626697E0
4.268205146E0,7.623371124E0,-6.488484740E-1,1.695146561E0
4.270206479E0,7.704776287E0,-6.656084061E-1,1.733454943E0
4.272207812E0,7.807730198E0,-7.039167881E-1,1.762186289E0
4.274209112E0,7.834067345E0,-7.134938836E-1,1.807677507E0
4.276210145E0,7.917866707E0,-7.326480746E-1,1.829225898E0
4.278211478E0,7.960963726E0,-7.541965842E-1,1.841197371E0
4.280212478E0,8.018425941E0,-7.901107073E-1,1.843591571E0
4.282213811E0,8.109408379E0,-8.140534163E-1,1.855562925E0
4.284215144E0,8.142929077E0,-8.332076073E-1,1.850774407E0
4.286216510E0,8.207573891E0,-8.403904438E-1,1.834014535E0
4.288217843E0,8.248276711E0,-8.427847624E-1,1.771763325E0
4.290219176E0,8.255459785E0,-8.475732803E-1,1.745426297E0
4.292220542E0,8.296162605E0,-8.595446348E-1,1.678386688E0
4.294221875E0,8.324893951E0,-8.427847624E-1,1.616135478E0
4.296223208E0,8.329682350E0,-8.356019258E-1,1.577827096E0
4.298224541E0,8.348835945E0,-8.116591573E-1,1.494027495E0
4.300225941E0,8.341653824E0,-8.068706393E-1,1.458113313E0
4.302227274E0,8.339259148E0,-7.877163887E-1,1.383890867E0
4.304228607E0,8.334470749E0,-7.422251701E-1,1.297696948E0
4.306229940E0,8.336864471E0,-7.350423932E-1,1.261782765E0
4.308231306E0,8.288979530E0,-7.134938836E-1,1.182771802E0
4.310232639E0,8.257853508E0,-6.584255695E-1,1.125309110E0
4.312234305E0,8.226728439E0,-6.440598965E-1,1.089395046E0
4.314235671E0,8.152505875E0,-5.985686779E-1,1.017566800E0
4.316237704E0,8.116591454E0,-5.578660369E-1,9.768640995E-1
4.318239037E0,8.075888634E0,-5.411061049E-1,9.481328130E-1
4.320240403E0,8.013637543E0,-4.860377908E-1,9.265843630E-1
4.324236936E0,7.901106834E0,-3.998439014E-1,8.643332124E-1
4.326238302E0,7.848433018E0,-3.447755575E-1,8.523618579E-1
4.328239635E0,7.814912796E0,-3.136500120E-1,8.523618579E-1
4.330240968E0,7.757450581E0,-2.753416002E-1,8.571503758E-1
4.332242334E0,7.690410614E0,-2.154847383E-1,8.715160489E-1
4.334243734E0,7.673650742E0,-1.675992310E-1,8.763045669E-1
4.336245367E0,7.632947922E0,-1.197137386E-1,8.786988258E-1
