"Time (s)","Gyroscope x (rad/s)","Gyroscope y (rad/s)","Gyroscope z (rad/s)"
0.000000000E0,4.669698179E-1,4.259990901E-2,9.327057004E-2
2.002500000E-3,4.730784893E-1,4.198904335E-2,9.327057004E-2
4.004500000E-3,4.761328101E-1,4.321077466E-2,1.024335474E-1
6.006250000E-3,4.785762727E-1,4.687596485E-2,1.060987413E-1
8.008050000E-3,4.804088771E-1,5.298461765E-2,1.128182635E-1
1.000971600E-2,4.840740561E-1,5.115202442E-2,1.170943156E-1
1.201128700E-2,4.871283770E-1,5.054115504E-2,1.232029647E-1
1.401291200E-2,4.895718396E-1,5.664981157E-2,1.256464273E-1
1.601446700E-2,4.938479066E-1,5.176289007E-2,1.311442107E-1
1.801506700E-2,4.993456602E-1,4.931942746E-2,1.354202777E-1
2.001570300E-2,4.993456602E-1,4.931942746E-2,1.354202777E-1
2.201703600E-2,4.993456602E-1,4.137817770E-2,1.384745985E-1
2.401834300E-2,5.036217570E-1,3.954558074E-2,1.360311359E-1
2.601970000E-2,5.030108690E-1,3.282606602E-2,1.427506506E-1
2.802103300E-2,5.072869062E-1,2.977173962E-2,1.421397924E-1
3.002240800E-2,5.066760778E-1,1.511097327E-2,1.427506506E-1
3.202376000E-2,5.103412271E-1,2.893668599E-3,1.415289342E-1
3.402509300E-2,5.152282119E-1,-6.880175322E-3,1.427506506E-1
3.602646100E-2,5.201151371E-1,-2.154094167E-2,1.439723819E-1
3.802781100E-2,5.176716447E-1,-3.925603628E-2,1.415289342E-1
4.002914400E-2,5.170608163E-1,-4.658641294E-2,1.409180611E-1
4.203050700E-2,5.182825327E-1,-6.552323699E-2,1.396963298E-1
4.403185400E-2,5.182825327E-1,-8.384919912E-2,1.403071880E-1
4.603318700E-2,5.164498687E-1,-9.545563161E-2,1.396963298E-1
4.803454700E-2,5.268346071E-1,-1.101163998E-1,1.335876733E-1
5.003731600E-2,5.262237787E-1,-1.357727349E-1,1.317550838E-1
5.203864900E-2,5.219476819E-1,-1.498226523E-1,1.280898899E-1
5.404000600E-2,5.207259655E-1,-1.724246591E-1,1.293116212E-1
5.604135000E-2,5.231694579E-1,-1.803659052E-1,1.262573004E-1
5.804268300E-2,5.237802863E-1,-2.011353374E-1,1.225920990E-1
6.004398300E-2,5.250020027E-1,-2.255699337E-1,1.219812408E-1
6.204524900E-2,5.188933611E-1,-2.329003215E-1,1.189269125E-1
6.404651500E-2,5.256128907E-1,-2.506153882E-1,1.128182635E-1
6.604781500E-2,5.243911743E-1,-2.671087682E-1,1.091530696E-1
6.804908100E-2,5.237802863E-1,-2.799369395E-1,1.079313383E-1
7.005034700E-2,5.243911743E-1,-2.976520360E-1,1.060987413E-1
7.205164700E-2,5.225585699E-1,-3.104802072E-1,1.012118235E-1
7.405291300E-2,5.274454951E-1,-3.141453862E-1,1.024335474E-1
7.605424600E-2,5.256128907E-1,-3.318604827E-1,9.632489830E-2
7.805591200E-2,5.237802863E-1,-3.379691541E-1,9.632489830E-2
8.005757800E-2,5.237802863E-1,-3.514081836E-1,9.754662961E-2
8.205897800E-2,5.213368535E-1,-3.624037504E-1,9.449230134E-2
8.406041100E-2,5.188933611E-1,-3.630146086E-1,9.632489830E-2
8.606181100E-2,5.195041895E-1,-3.733993173E-1,8.960537612E-2
8.806321100E-2,5.091195107E-1,-3.868383467E-1,9.449230134E-2
9.006461100E-2,5.121738315E-1,-3.966122270E-1,9.388143569E-2
9.206601100E-2,5.036217570E-1,-3.984448016E-1,9.449230134E-2
9.406741100E-2,4.981239736E-1,-4.045534432E-1,9.265970439E-2
9.606874400E-2,4.962913394E-1,-4.033317268E-1,9.265970439E-2
9.807007700E-2,4.828523397E-1,-4.045534432E-1,9.510316700E-2
1.000714430E-1,4.840740561E-1,-4.057751894E-1,9.449230134E-2
1.020727760E-1,4.810197055E-1,-4.027208686E-1,1.018226817E-1
1.040741090E-1,4.743002057E-1,-3.978339136E-1,9.937922657E-2
1.060754750E-1,4.657481015E-1,-3.935578465E-1,9.815749526E-2
1.080768080E-1,4.639154971E-1,-3.856166303E-1,9.754662961E-2
1.100769080E-1,4.608611763E-1,-3.788971007E-1,9.693576396E-2
1.120779740E-1,4.584177136E-1,-3.691232502E-1,9.815749526E-2
1.140793070E-1,4.541416764E-1,-3.507972956E-1,1.030444205E-1
1.160806400E-1,4.462004006E-1,-3.373582661E-1,1.012118235E-1
1.180820060E-1,4.468112886E-1,-3.300278783E-1,9.999009222E-2
1.200833390E-1,4.376482964E-1,-3.104802072E-1,1.006009504E-1
1.220846720E-1,4.376482964E-1,-2.890999019E-1,1.012118235E-1
1.240860380E-1,4.339830875E-1,-2.756609023E-1,1.024335474E-1
1.260873710E-1,4.297070503E-1,-2.573349178E-1,1.036552787E-1
1.280887040E-1,4.278744459E-1,-2.438958883E-1,1.018226817E-1
1.300900700E-1,4.217658043E-1,-2.243482023E-1,9.754662961E-2
1.320914030E-1,4.199331999E-1,-1.993027329E-1,9.571403265E-2
1.340927360E-1,4.150463045E-1,-1.870854199E-1,9.571403265E-2
1.360940360E-1,4.071050286E-1,-1.632616669E-1,9.021624923E-2
1.380953020E-1,4.064941704E-1,-1.406596750E-1,8.960537612E-2
1.400965680E-1,4.077159166E-1,-1.314966828E-1,8.777277917E-2
1.420986680E-1,3.967203498E-1,-1.064512134E-1,8.471845835E-2
1.440999340E-1,3.936659992E-1,-8.384919912E-2,8.594018221E-2
1.461012000E-1,3.906116784E-1,-7.407535613E-2,8.227499574E-2
1.481025000E-1,3.900007904E-1,-6.246891245E-2,8.227499574E-2
1.501037660E-1,3.924442828E-1,-4.719728231E-2,7.983153313E-2
1.521059660E-1,3.869464695E-1,-3.131478652E-2,8.105327189E-2
1.541072660E-1,3.887790740E-1,-2.031921037E-2,7.127942145E-2
1.561085990E-1,3.936659992E-1,-1.176709775E-2,7.311201841E-2
1.581099320E-1,3.967203498E-1,9.613187052E-3,7.189028710E-2
1.601112650E-1,4.009963572E-1,1.388924289E-2,6.944682449E-2
1.621123310E-1,4.064941704E-1,2.427395247E-2,7.066855580E-2
1.641137310E-1,4.107702374E-1,3.526952863E-2,6.700336188E-2
1.661151310E-1,4.113810956E-1,5.115202442E-2,5.478606001E-2
1.681165310E-1,4.156571329E-1,5.542808026E-2,4.928827286E-2
1.701179310E-1,4.168788791E-1,6.092586368E-2,4.806654528E-2
1.721196310E-1,4.187114835E-1,5.787153915E-2,4.989913851E-2
1.741210310E-1,4.168788791E-1,5.542808026E-2,5.356433243E-2
1.761224310E-1,4.144354165E-1,5.115202442E-2,5.845125020E-2
1.781238310E-1,4.089376330E-1,4.993029311E-2,6.028384715E-2
1.801249310E-1,4.150463045E-1,4.993029311E-2,6.761422753E-2
1.821263310E-1,3.961094618E-1,5.603894591E-2,6.028384715E-2
1.841277310E-1,3.924442828E-1,4.931942746E-2,5.356433243E-2
1.861291310E-1,3.808378279E-1,3.771298751E-2,4.684481025E-2
1.881305310E-1,3.851138949E-1,4.115399439E-3,4.012529552E-2
1.901319310E-1,3.832812905E-1,-8.712771349E-3,3.218404949E-2
1.921333310E-1,3.802269697E-1,-3.620170429E-2,2.790798992E-2
1.941347310E-1,3.887790740E-1,-6.857756525E-2,2.485366166E-2
1.961361310E-1,3.832812905E-1,-7.774055004E-2,2.057760581E-2
1.981375310E-1,3.845030069E-1,-9.484477341E-2,2.241020277E-2
2.001386310E-1,3.851138949E-1,-1.040077507E-1,1.630154997E-2
2.021392310E-1,3.893899620E-1,-1.229445711E-1,1.507981960E-2
2.041402970E-1,3.863356113E-1,-1.363836080E-1,1.446895394E-2
2.061417300E-1,3.881682158E-1,-1.492117792E-1,1.569068432E-2
2.081431300E-1,3.961094618E-1,-1.663160026E-1,1.202549320E-2
2.101445300E-1,3.979420364E-1,-1.834202260E-1,1.446895394E-2
2.121450300E-1,3.967203498E-1,-1.919723451E-1,1.813414507E-2
2.141464300E-1,4.022181034E-1,-2.054113746E-1,1.813414507E-2
2.161478300E-1,4.058833122E-1,-2.292351276E-1,2.668625861E-2
2.181492630E-1,4.089376330E-1,-2.426741570E-1,3.096231632E-2
2.201506630E-1,4.016072452E-1,-2.689413726E-1,4.134702682E-2
2.221522630E-1,4.034398496E-1,-2.762717605E-1,4.867740721E-2
2.241536290E-1,4.016072452E-1,-3.043715656E-1,6.517077237E-2
2.261548950E-1,3.936659992E-1,-3.306387663E-1,7.433374971E-2
2.281608280E-1,3.838921487E-1,-3.514081836E-1,8.349672705E-2
2.301621280E-1,3.851138949E-1,-3.593494296E-1,9.204884619E-2
2.321633940E-1,3.722856939E-1,-3.782862425E-1,1.042661443E-1
2.341646600E-1,3.667879403E-1,-3.929470181E-1,1.067096069E-1
2.361661600E-1,3.625118732E-1,-4.161598682E-1,1.189269125E-1
2.381674260E-1,3.466293514E-1,-4.436488450E-1,1.329768002E-1
2.401689920E-1,3.399098516E-1,-4.607530534E-1,1.348094046E-1
2.421700580E-1,3.221947551E-1,-4.906854630E-1,1.470267177E-1
2.441713910E-1,3.093666136E-1,-5.261156559E-1,1.537462324E-1
2.461727240E-1,3.014253676E-1,-5.419980884E-1,1.549679637E-1
2.481740240E-1,2.855428457E-1,-5.682653189E-1,1.616874784E-1
2.501757570E-1,2.751581371E-1,-5.865913033E-1,1.635200828E-1
2.521770900E-1,2.586647570E-1,-6.134693623E-1,1.665744036E-1
2.541784560E-1,2.488909364E-1,-6.403474212E-1,1.677961200E-1
2.561797890E-1,2.397279441E-1,-6.427909136E-1,1.726830602E-1
2.581811220E-1,2.268997729E-1,-6.635603309E-1,1.720721871E-1
2.601827880E-1,2.122390121E-1,-6.702798605E-1,1.677961200E-1
2.621841210E-1,2.067412287E-1,-6.721124053E-1,1.714613140E-1
2.641857870E-1,1.963565201E-1,-6.672255397E-1,1.635200828E-1
2.661871200E-1,1.865826845E-1,-6.482886672E-1,1.641309410E-1
2.681884530E-1,1.853609532E-1,-6.415691376E-1,1.610766202E-1
2.701897860E-1,1.780305654E-1,-6.171345711E-1,1.561896950E-1
2.721911190E-1,1.755871177E-1,-5.963650942E-1,1.561896950E-1
2.741924520E-1,1.676458567E-1,-5.633783937E-1,1.470267177E-1
2.761937850E-1,1.597046107E-1,-5.169526339E-1,1.421397924E-1
2.781951180E-1,1.535959691E-1,-4.912963212E-1,1.360311359E-1
2.801964510E-1,1.438221186E-1,-4.357075691E-1,1.317550838E-1
2.821978840E-1,1.364917308E-1,-3.764536381E-1,1.244246960E-1
2.841992170E-1,1.309939474E-1,-3.459104002E-1,1.213703677E-1
2.862006170E-1,1.206092387E-1,-2.732174098E-1,1.158725843E-1
2.901985500E-1,1.028941423E-1,-1.589856297E-1,1.085421965E-1
2.921999500E-1,9.250943363E-2,-8.262746781E-2,9.693576396E-2
2.942013830E-1,8.334644884E-2,-1.993253361E-3,9.510316700E-2
2.962025830E-1,7.784866542E-2,3.893471882E-2,9.510316700E-2
2.982039830E-1,7.112915069E-2,1.165146008E-1,9.082710743E-2
3.002051830E-1,6.502050161E-2,1.531665176E-1,8.899451792E-2
3.022068160E-1,5.646838248E-2,2.264703512E-1,8.532932401E-2
3.042081490E-1,4.425108060E-2,2.875568867E-1,7.616634667E-2
3.062095150E-1,4.241848364E-2,3.174892664E-1,7.860980183E-2
3.082109150E-1,3.630983084E-2,3.785758018E-1,7.799893618E-2
3.102118480E-1,2.409252524E-2,4.378297031E-1,7.250115275E-2
3.122132140E-1,2.409252524E-2,4.628751874E-1,7.189028710E-2
3.142145470E-1,8.210028522E-3,5.111335516E-1,6.944682449E-2
3.162158800E-1,8.210028522E-3,5.471746325E-1,6.822510064E-2
3.182172460E-1,3.323107027E-3,5.667222738E-1,6.883595884E-2
3.202185790E-1,-4.007276148E-3,5.905460119E-1,6.761422753E-2
3.222199120E-1,-7.672467735E-3,6.009307504E-1,6.517077237E-2
3.242212780E-1,-1.194852404E-2,6.198675632E-1,7.005769014E-2
3.262226110E-1,-1.866804063E-2,6.296414137E-1,6.639250368E-2
3.282239110E-1,-2.294410020E-2,6.308631301E-1,6.700336188E-2
3.302252770E-1,-2.844188549E-2,6.351392269E-1,6.700336188E-2
3.322266770E-1,-3.149621189E-2,6.278088093E-1,6.272730976E-2
3.342280100E-1,-3.088534810E-2,6.265870929E-1,6.639250368E-2
3.362293760E-1,-3.882659599E-2,6.125371456E-1,6.639250368E-2
3.382307090E-1,-4.432438314E-2,5.881025791E-1,6.272730976E-2
3.402320090E-1,-4.493524879E-2,5.783287287E-1,6.333817542E-2
3.422333420E-1,-4.676784202E-2,5.557267666E-1,6.883595884E-2
3.442346750E-1,-4.798957333E-2,5.209074020E-1,6.517077237E-2
3.462360080E-1,-5.348736048E-2,5.013597012E-1,6.272730976E-2
3.482423740E-1,-5.287649482E-2,4.671512544E-1,6.272730976E-2
3.502437070E-1,-5.959601328E-2,4.414949119E-1,5.845125020E-2
3.522450730E-1,-6.203947589E-2,3.938474059E-1,5.967298150E-2
3.542464060E-1,-5.715255439E-2,3.480325341E-1,6.028384715E-2
3.562474390E-1,-6.142860651E-2,3.248196542E-1,5.906211957E-2
3.582488050E-1,-6.265033782E-2,2.680091858E-1,5.600779131E-2
3.602503710E-1,-7.242418826E-2,2.142530382E-1,5.661865696E-2
3.622514370E-1,-6.875899434E-2,1.843206435E-1,5.661865696E-2
3.642528030E-1,-7.608937472E-2,1.293427795E-1,5.356433243E-2
3.662541360E-1,-8.036543429E-2,7.008884102E-2,4.745567590E-2
3.682551690E-1,-8.403062075E-2,3.832385316E-2,4.928827286E-2
3.702565350E-1,-8.586321771E-2,-2.581699751E-2,4.379048571E-2
3.722578680E-1,-9.136100858E-2,-5.147333816E-2,4.440135136E-2
3.742592010E-1,-1.005239859E-1,-1.156141907E-1,4.134702682E-2
3.762605670E-1,-1.066326350E-1,-1.712029278E-1,3.584923968E-2
3.782619000E-1,-1.121304259E-1,-2.023570538E-1,3.340577707E-2
3.802632330E-1,-1.194608063E-1,-2.567240596E-1,2.607539296E-2
3.822645990E-1,-1.274020523E-1,-3.062041402E-1,2.118847333E-2
3.842659320E-1,-1.298455149E-1,-3.336930871E-1,1.691241376E-2
3.862697320E-1,-1.371759027E-1,-3.764536381E-1,1.691241376E-2
3.882711320E-1,-1.432845443E-1,-4.173816144E-1,5.305975210E-3
3.902724650E-1,-1.432845443E-1,-4.344858527E-1,2.862514462E-3
3.922737310E-1,-1.451171488E-1,-4.644182324E-1,-4.467868246E-3
3.942747970E-1,-1.438954175E-1,-4.735811949E-1,-9.965655394E-3
3.962761300E-1,-1.475606114E-1,-4.974049628E-1,-1.240911707E-2
3.982774630E-1,-1.500040740E-1,-5.126765966E-1,-2.157209627E-2
4.002788630E-1,-1.408410966E-1,-5.200069547E-1,-2.523728833E-2
4.022801960E-1,-1.438954175E-1,-5.255047679E-1,-3.745459020E-2
4.042814960E-1,-1.408410966E-1,-5.218396187E-1,-4.845016450E-2
4.062828620E-1,-1.414519548E-1,-5.187852979E-1,-5.028276145E-2
4.102805610E-1,-1.420628130E-1,-4.912963212E-1,-6.616526097E-2
4.122818940E-1,-1.377867609E-1,-4.790790081E-1,-6.616526097E-2
4.142832270E-1,-1.390084922E-1,-4.552552700E-1,-7.288477570E-2
4.162848600E-1,-1.365650296E-1,-4.277663231E-1,-8.082602918E-2
4.182861930E-1,-1.396193504E-1,-4.051643014E-1,-8.754553646E-2
4.202875260E-1,-1.347324401E-1,-3.746210635E-1,-9.426505864E-2
4.222891590E-1,-1.377867609E-1,-3.617928624E-1,-9.670852125E-2
4.242904920E-1,-1.322889775E-1,-3.269735575E-1,-9.609765559E-2
4.262918250E-1,-1.310672462E-1,-2.939868569E-1,-9.915198386E-2
4.282934250E-1,-1.316781193E-1,-2.805477977E-1,-1.046497673E-1
4.302944250E-1,-1.255694628E-1,-2.445067614E-1,-1.022063047E-1
4.322964250E-1,-1.255694628E-1,-2.212938666E-1,-1.095366925E-1
4.342977910E-1,-1.249585971E-1,-2.060222477E-1,-1.083149537E-1
4.362991240E-1,-1.219042689E-1,-1.742572486E-1,-1.095366925E-1
4.383004570E-1,-1.121304259E-1,-1.431031227E-1,-1.077040955E-1
4.403018230E-1,-1.121304259E-1,-1.308858246E-1,-1.132018790E-1
4.423031560E-1,-1.121304259E-1,-1.052294746E-1,-1.107584238E-1
4.443044890E-1,-1.090760976E-1,-9.117957950E-2,-1.101475507E-1
4.483043880E-1,-9.808052331E-2,-4.047776386E-2,-1.101475507E-1
4.503057210E-1,-9.624792635E-2,-2.154094167E-2,-1.132018790E-1
4.523070870E-1,-9.746965766E-2,-2.604118548E-3,-1.113692820E-1
4.543087200E-1,-9.563706070E-2,1.999789663E-2,-1.138127446E-1
4.563100530E-1,-9.197186679E-2,3.221520409E-2,-1.144236177E-1
4.583114190E-1,-8.708494902E-2,5.542808026E-2,-1.138127446E-1
4.603127520E-1,-8.280888945E-2,7.497576624E-2,-1.095366925E-1
4.623140850E-1,-7.975456864E-2,8.230615407E-2,-1.113692820E-1
4.643157510E-1,-8.097629249E-2,9.635604918E-2,-1.138127446E-1
4.663169170E-1,-8.158716559E-2,1.079624966E-1,-1.119801477E-1
4.683182500E-1,-7.547850907E-2,1.134602800E-1,-1.125910208E-1
4.703197830E-1,-7.731110603E-2,1.256775856E-1,-1.083149537E-1
4.723211160E-1,-7.670024037E-2,1.323971003E-1,-1.101475507E-1
4.743224490E-1,-7.608937472E-2,1.476687342E-1,-1.107584238E-1
4.763238150E-1,-7.670024037E-2,1.543882489E-1,-1.046497673E-1
4.783251480E-1,-7.547850907E-2,1.598860323E-1,-1.083149537E-1
4.803264810E-1,-7.914370298E-2,1.763793975E-1,-1.058714986E-1
4.823278140E-1,-8.158716559E-2,1.824880540E-1,-1.095366925E-1
4.843291470E-1,-8.464148641E-2,1.849315166E-1,-1.113692820E-1
4.863301800E-1,-8.280888945E-2,1.916510314E-1,-1.113692820E-1
4.883320130E-1,-8.341976255E-2,2.038683295E-1,-1.156453416E-1
4.903336130E-1,-8.525235206E-2,2.075335234E-1,-1.144236177E-1
4.923339790E-1,-8.586321771E-2,2.203616947E-1,-1.125910208E-1
4.943350120E-1,-8.280888945E-2,2.209725678E-1,-1.150344759E-1
4.963363450E-1,-8.647408336E-2,2.392985225E-1,-1.174779385E-1
4.983377110E-1,-8.341976255E-2,2.460180372E-1,-1.180888042E-1
5.003390440E-1,-8.036543429E-2,2.502940893E-1,-1.229757220E-1
5.023403770E-1,-8.036543429E-2,2.570136189E-1,-1.254191846E-1
5.043417430E-1,-8.280888945E-2,2.673983276E-1,-1.296952367E-1
5.063434090E-1,-7.731110603E-2,2.698417604E-1,-1.296952367E-1
5.083447420E-1,-8.464148641E-2,2.765613198E-1,-1.309169829E-1
5.103461080E-1,-8.280888945E-2,2.710635066E-1,-1.400799602E-1
5.123486080E-1,-8.097629249E-2,2.759504318E-1,-1.382473558E-1
5.143496410E-1,-7.975456864E-2,2.655657232E-1,-1.461886019E-1
5.163506740E-1,-7.914370298E-2,2.655657232E-1,-1.474103332E-1
5.183520070E-1,-7.670024037E-2,2.600679398E-1,-1.516863853E-1
5.203530400E-1,-8.280888945E-2,2.502940893E-1,-1.559624523E-1
5.223544060E-1,-8.036543429E-2,2.466289103E-1,-1.590167731E-1
5.243552390E-1,-7.914370298E-2,2.356333286E-1,-1.681797504E-1
5.263599050E-1,-8.403062075E-2,2.252486050E-1,-1.742884070E-1
5.283612710E-1,-8.586321771E-2,2.130313069E-1,-1.797861904E-1
5.303626040E-1,-8.464148641E-2,1.940944940E-1,-1.846731156E-1
5.323639040E-1,-9.075013548E-2,1.757685393E-1,-1.920034885E-1
5.343652700E-1,-9.136100858E-2,1.666055620E-1,-1.999447495E-1
5.363665360E-1,-9.685879201E-2,1.531665176E-1,-2.121620476E-1
5.383678690E-1,-1.011348516E-1,1.366731524E-1,-2.188815773E-1
5.403692350E-1,-1.041891798E-1,1.250667125E-1,-2.225467712E-1
5.423705680E-1,-1.084652320E-1,1.061298996E-1,-2.304880023E-1
5.443719010E-1,-1.133521572E-1,9.330172837E-2,-2.372075170E-1
5.463735670E-1,-1.182390749E-1,8.413875103E-2,-2.445379049E-1
5.483744670E-1,-1.212934032E-1,6.764538586E-2,-2.555334866E-1
5.503758670E-1,-1.310672462E-1,6.153673306E-2,-2.628638744E-1
5.523775330E-1,-1.304563731E-1,5.664981157E-2,-2.634747326E-1
5.543791660E-1,-1.359541565E-1,5.481721461E-2,-2.683616579E-1
5.563801660E-1,-1.408410966E-1,4.993029311E-2,-2.708051205E-1
5.583814990E-1,-1.438954175E-1,4.687596485E-2,-2.775246203E-1
5.603828320E-1,-1.530583948E-1,4.809769988E-2,-2.799681127E-1
5.623841980E-1,-1.561127156E-1,5.481721461E-2,-2.842441499E-1
5.643855310E-1,-1.616104990E-1,5.726067722E-2,-2.854658961E-1
5.663868640E-1,-1.652756929E-1,6.153673306E-2,-2.836332619E-1
5.683882300E-1,-1.744386703E-1,6.764538586E-2,-2.842441499E-1
5.703895630E-1,-1.860451251E-1,8.047355711E-2,-2.830224335E-1
5.723897290E-1,-1.860451251E-1,8.230615407E-2,-2.824115455E-1
5.743913950E-1,-1.976515651E-1,9.696692228E-2,-2.805789411E-1
5.763930610E-1,-2.074254006E-1,1.110168174E-1,-2.756920457E-1
5.783943270E-1,-2.092579901E-1,1.177363321E-1,-2.726377249E-1
5.803959930E-1,-2.184209675E-1,1.391166300E-1,-2.689725459E-1
5.823973260E-1,-2.269730866E-1,1.556099802E-1,-2.665290534E-1
5.843988920E-1,-2.349143326E-1,1.727142036E-1,-2.659181952E-1
5.883984250E-1,-2.495751083E-1,2.185291052E-1,-2.488139719E-1
5.903997580E-1,-2.544620335E-1,2.295246720E-1,-2.451487780E-1
5.924011580E-1,-2.648467422E-1,2.509049475E-1,-2.390401214E-1
5.944024910E-1,-2.727879882E-1,2.588461936E-1,-2.402618527E-1
5.964042910E-1,-2.819509506E-1,2.912220657E-1,-2.280445546E-1
5.984056570E-1,-2.892813385E-1,3.040502369E-1,-2.182707042E-1
6.004066570E-1,-2.984443307E-1,3.168784082E-1,-2.188815773E-1
6.024080570E-1,-3.094398975E-1,3.407021463E-1,-2.115511894E-1
6.044094230E-1,-3.179920018E-1,3.657476306E-1,-2.029990703E-1
6.064107560E-1,-3.198246062E-1,3.724671304E-1,-2.017773390E-1
6.084120890E-1,-3.283767104E-1,3.950691521E-1,-1.956686825E-1
6.104134550E-1,-3.393722773E-1,4.048429728E-1,-1.913926452E-1
6.124147880E-1,-3.405940235E-1,4.133951068E-1,-1.907817721E-1
6.144160540E-1,-3.436483443E-1,4.311102033E-1,-1.858948469E-1
6.164177540E-1,-3.424266279E-1,4.323319495E-1,-1.828405112E-1
6.184190870E-1,-3.564765453E-1,4.469926953E-1,-1.736775339E-1
6.204204200E-1,-3.607525826E-1,4.549339712E-1,-1.706232131E-1
6.224217530E-1,-3.564765453E-1,4.634860456E-1,-1.626819670E-1
6.244230860E-1,-3.705264330E-1,4.579882920E-1,-1.663471460E-1
6.264244190E-1,-3.686938286E-1,4.579882920E-1,-1.608493626E-1
6.284257520E-1,-3.705264330E-1,4.598208666E-1,-1.565733254E-1
6.304270850E-1,-3.717481494E-1,4.543230832E-1,-1.584059149E-1
6.324284510E-1,-3.760241866E-1,4.451600909E-1,-1.504646540E-1
6.344353510E-1,-3.790785074E-1,4.402731955E-1,-1.565733254E-1
6.364365840E-1,-3.845763206E-1,4.311102033E-1,-1.535189748E-1
6.384380170E-1,-3.888523877E-1,4.085081816E-1,-1.565733254E-1
6.404393500E-1,-3.839654624E-1,4.005669653E-1,-1.553515792E-1
6.424406830E-1,-3.888523877E-1,3.810192645E-1,-1.553515792E-1
6.444420490E-1,-3.961827755E-1,3.688019514E-1,-1.584059149E-1
6.464433820E-1,-3.931284547E-1,3.443673253E-1,-1.639036983E-1
6.484447150E-1,-4.016805291E-1,3.187110126E-1,-1.645145565E-1
6.504460810E-1,-3.998479545E-1,3.003850281E-1,-1.675688922E-1
6.524474140E-1,-4.090109169E-1,2.777830064E-1,-1.706232131E-1
6.544487470E-1,-4.096218050E-1,2.460180372E-1,-1.785644740E-1
6.564497130E-1,-4.120652378E-1,2.325789928E-1,-1.816187948E-1
6.584510460E-1,-4.212282300E-1,2.069226503E-1,-1.907817721E-1
6.604527120E-1,-4.236716926E-1,1.769902706E-1,-1.938360929E-1
6.624540120E-1,-4.212282300E-1,1.672164202E-1,-2.017773390E-1
6.644553450E-1,-4.316129386E-1,1.372840255E-1,-2.103294581E-1
6.664566780E-1,-4.377215803E-1,1.195689291E-1,-2.115511894E-1
6.684577440E-1,-4.389433265E-1,9.330172837E-2,-2.256010920E-1
6.704590770E-1,-4.444411397E-1,6.947798282E-2,-2.341531962E-1
6.724604100E-1,-4.487171769E-1,5.420634896E-2,-2.402618527E-1
6.744618430E-1,-4.529932141E-1,2.488481626E-2,-2.518682778E-1
6.764631760E-1,-4.627670944E-1,4.726264626E-3,-2.598095536E-1
6.784645090E-1,-4.658214152E-1,-7.491040509E-3,-2.616421580E-1
6.804658750E-1,-4.780386984E-1,-2.276267298E-2,-2.732485533E-1
6.824672080E-1,-4.878125489E-1,-4.108862951E-2,-2.830224335E-1
6.844685410E-1,-4.896451533E-1,-4.841900989E-2,-2.872984707E-1
6.864699070E-1,-4.988081455E-1,-5.513853207E-2,-2.921853960E-1
6.884712400E-1,-5.036950111E-1,-6.063631922E-2,-2.940180004E-1
6.904725730E-1,-5.104145408E-1,-7.041016221E-2,-3.001266420E-1
6.924739060E-1,-5.220209956E-1,-7.224275917E-2,-3.031809628E-1
6.964711050E-1,-5.385143161E-1,-6.552323699E-2,-3.117330968E-1
6.984724380E-1,-5.452339053E-1,-6.246891245E-2,-3.105113506E-1
7.004765040E-1,-5.519534349E-1,-5.880372226E-2,-3.123439550E-1
7.024778700E-1,-5.605055094E-1,-4.169949517E-2,-3.141765296E-1
7.044791360E-1,-5.708901882E-1,-2.703872882E-2,-3.099004924E-1
7.064804690E-1,-5.763880014E-1,-1.665401831E-2,-3.044027090E-1
7.084818350E-1,-5.861618519E-1,9.002321400E-3,-3.037918508E-1
7.104876680E-1,-5.892161727E-1,3.649125621E-2,-3.007375300E-1
7.124890010E-1,-5.959356427E-1,5.237375200E-2,-2.995157838E-1
7.144903670E-1,-6.020443439E-1,7.986268401E-2,-2.885202169E-1
7.164917000E-1,-6.075420976E-1,1.018538326E-1,-2.879093289E-1
7.184930330E-1,-6.136507988E-1,1.354514360E-1,-2.805789411E-1
7.204943990E-1,-6.179268360E-1,1.776011288E-1,-2.714159787E-1
7.224957320E-1,-6.191485524E-1,1.873749644E-1,-2.671399117E-1
7.244970650E-1,-6.191485524E-1,2.246377617E-1,-2.573660910E-1
7.264984310E-1,-6.252571940E-1,2.564027309E-1,-2.451487780E-1
7.284997640E-1,-6.270898581E-1,2.747286856E-1,-2.427053005E-1
7.305010970E-1,-6.307550073E-1,3.058828413E-1,-2.298771292E-1
7.325024630E-1,-6.289224029E-1,3.272631168E-1,-2.207141668E-1
7.345086630E-1,-6.307550073E-1,3.364260793E-1,-2.176598310E-1
7.365099960E-1,-6.313658953E-1,3.639150262E-1,-2.054425329E-1
7.385113620E-1,-6.313658953E-1,3.651367426E-1,-1.968904287E-1
7.405126950E-1,-6.393071413E-1,3.865170181E-1,-1.895600408E-1
7.425140280E-1,-6.374745369E-1,3.993452191E-1,-1.779536009E-1
7.445154610E-1,-6.386963129E-1,4.030103981E-1,-1.718449444E-1
7.465167940E-1,-6.393071413E-1,4.054538608E-1,-1.620711088E-1
7.485180270E-1,-6.380853653E-1,4.097299278E-1,-1.510755271E-1
7.505193930E-1,-6.448049545E-1,4.127842486E-1,-1.510755271E-1
7.525207260E-1,-6.478592753E-1,4.115625322E-1,-1.413016766E-1
7.545260920E-1,-6.454157829E-1,3.975126147E-1,-1.303061098E-1
7.565274580E-1,-6.448049545E-1,3.932365775E-1,-1.278626472E-1
7.585287910E-1,-6.496918201E-1,3.706345558E-1,-1.205322668E-1
7.625287240E-1,-6.588547826E-1,3.407021463E-1,-1.101475507E-1
7.645301240E-1,-6.570222378E-1,3.089371622E-1,-1.070932299E-1
7.665314570E-1,-6.619091034E-1,2.948872745E-1,-1.058714986E-1
7.685331570E-1,-6.619091034E-1,2.631222606E-1,-1.003737077E-1
7.725313560E-1,-6.686286330E-1,2.148639113E-1,-9.487592429E-2
7.745326890E-1,-6.698504090E-1,1.788228601E-1,-9.243246168E-2
7.765340220E-1,-6.765698791E-1,1.501121968E-1,-8.632381260E-2
7.785353880E-1,-6.747373343E-1,1.244558468E-1,-8.326948434E-2
7.805367210E-1,-6.790133715E-1,8.597134054E-2,-8.632381260E-2
7.825377540E-1,-6.839002967E-1,4.870856181E-2,-8.693467826E-2
7.845391200E-1,-6.863437295E-1,3.526952863E-2,-8.326948434E-2
7.865404530E-1,-6.863437295E-1,-6.880175322E-3,-8.143688738E-2
7.885420860E-1,-6.906198263E-1,-2.093007602E-2,-8.143688738E-2
7.905434520E-1,-6.900089979E-1,-6.063631922E-2,-8.449121565E-2
7.925450520E-1,-6.930633187E-1,-9.301217645E-2,-8.265862614E-2
7.965428840E-1,-6.979501843E-1,-1.339401454E-1,-7.838255912E-2
7.985444170E-1,-6.967284679E-1,-1.559312940E-1,-8.632381260E-2
8.005457500E-1,-6.961176395E-1,-1.742572486E-1,-8.937813342E-2
8.025482500E-1,-6.967284679E-1,-1.938049495E-1,-8.693467826E-2
8.045494500E-1,-6.991719604E-1,-2.096874416E-1,-9.182160348E-2
8.065507830E-1,-6.973393559E-1,-2.206830084E-1,-8.937813342E-2
8.085522490E-1,-7.010045052E-1,-2.292351276E-1,-8.388034999E-2
8.105535820E-1,-6.979501843E-1,-2.396198213E-1,-9.304332733E-2
8.125549150E-1,-7.034479976E-1,-2.469502091E-1,-9.182160348E-2
8.165535810E-1,-7.071131468E-1,-2.555023432E-1,-9.304332733E-2
8.185549140E-1,-7.089457512E-1,-2.512262762E-1,-1.015954465E-1
8.205559470E-1,-7.052806020E-1,-2.512262762E-1,-1.052606329E-1
8.225572800E-1,-7.052806020E-1,-2.457284778E-1,-1.089258268E-1
8.245586130E-1,-7.083349228E-1,-2.414524257E-1,-1.052606329E-1
8.265599790E-1,-7.089457512E-1,-2.304568440E-1,-1.132018790E-1
8.285609450E-1,-7.132217884E-1,-2.225156128E-1,-1.113692820E-1
8.305622780E-1,-7.120001316E-1,-2.017461807E-1,-1.186996698E-1
8.325667110E-1,-7.089457512E-1,-1.821984947E-1,-1.180888042E-1
8.345680440E-1,-7.052806020E-1,-1.748681217E-1,-1.199214011E-1
8.365693770E-1,-6.997827888E-1,-1.498226523E-1,-1.241974533E-1
8.385705770E-1,-7.016153336E-1,-1.369944811E-1,-1.278626472E-1
8.405718430E-1,-6.912306547E-1,-1.095055416E-1,-1.303061098E-1
8.425735090E-1,-6.826785803E-1,-7.957313955E-2,-1.333604306E-1
8.445748420E-1,-6.704612374E-1,-6.613410264E-2,-1.364147663E-1
8.465761750E-1,-6.600765586E-1,-3.375824913E-2,-1.382473558E-1
8.485775410E-1,-6.405288577E-1,1.671938226E-3,-1.382473558E-1
8.505788740E-1,-6.338093281E-1,2.488481626E-2,-1.437451541E-1
8.525798740E-1,-6.148725152E-1,5.787153915E-2,-1.406908184E-1
8.545808740E-1,-5.965465903E-1,9.024740010E-2,-1.413016766E-1
8.565822070E-1,-5.861618519E-1,1.055190265E-1,-1.413016766E-1
8.585833400E-1,-5.739445686E-1,1.446144134E-1,-1.370256245E-1
8.605847060E-1,-5.623381138E-1,1.556099802E-1,-1.406908184E-1
8.625849060E-1,-5.464556217E-1,1.922619045E-1,-1.413016766E-1
8.645870060E-1,-5.372926593E-1,2.258594781E-1,-1.370256245E-1
8.665883720E-1,-5.305731297E-1,2.411311120E-1,-1.376364827E-1
8.685904050E-1,-5.183558464E-1,2.655657232E-1,-1.333604306E-1
8.705917380E-1,-5.098037124E-1,2.777830064E-1,-1.351930201E-1
8.725931040E-1,-5.110254288E-1,2.900003493E-1,-1.351930201E-1
8.745944370E-1,-5.049167871E-1,3.095480204E-1,-1.303061098E-1
8.765957700E-1,-5.043058991E-1,3.211544454E-1,-1.254191846E-1
8.785971360E-1,-5.000298619E-1,3.272631168E-1,-1.248083189E-1
8.805988020E-1,-4.975863993E-1,3.382586837E-1,-1.193105280E-1
8.826001350E-1,-4.884234071E-1,3.474216759E-1,-1.156453416E-1
8.846015010E-1,-4.896451533E-1,3.461999595E-1,-1.101475507E-1
8.866028340E-1,-4.810930192E-1,3.486433923E-1,-1.089258268E-1
8.886041670E-1,-4.823147655E-1,3.480325341E-1,-1.064823642E-1
8.906052000E-1,-4.749843776E-1,3.541411757E-1,-9.731938690E-2
8.946047660E-1,-4.707083106E-1,3.541411757E-1,-8.143688738E-2
8.966061320E-1,-4.621562064E-1,3.553629220E-1,-7.349564135E-2
8.986075980E-1,-4.578801692E-1,3.510868549E-1,-6.311093271E-2
9.006097310E-1,-4.542149603E-1,3.492542803E-1,-5.578054860E-2
9.026110640E-1,-4.419976473E-1,3.461999595E-1,-4.173064977E-2
9.046123970E-1,-4.340564013E-1,3.400912881E-1,-3.134594113E-2
9.066137300E-1,-4.297803640E-1,3.376478255E-1,-2.096122876E-2
9.086150630E-1,-4.206173718E-1,3.272631168E-1,-8.743925020E-3
9.106163960E-1,-4.120652378E-1,3.181001246E-1,-5.078733433E-3
9.126178290E-1,-4.022914171E-1,3.132132292E-1,1.141462848E-2
9.146195290E-1,-3.925175667E-1,3.052719831E-1,2.974058501E-2
9.166208620E-1,-3.851872087E-1,3.003850281E-1,3.951442987E-2
9.186266950E-1,-3.723590076E-1,2.851133943E-1,5.417519435E-2
9.206319610E-1,-3.570874035E-1,2.747286856E-1,7.799893618E-2
9.226332940E-1,-3.528113365E-1,2.667874396E-1,8.349672705E-2
9.246338940E-1,-3.430374861E-1,2.594570518E-1,1.036552787E-1
9.266351600E-1,-3.283767104E-1,2.484614998E-1,1.250355542E-1
9.286357260E-1,-3.222680688E-1,2.386876494E-1,1.317550838E-1
9.306370260E-1,-3.124942183E-1,2.221942842E-1,1.549679637E-1
9.326383590E-1,-3.076072931E-1,2.142530382E-1,1.604657471E-1
9.346396920E-1,-2.972225845E-1,1.861532480E-1,1.751265079E-1
9.366413250E-1,-2.843944132E-1,1.549991220E-1,1.983393878E-1
9.386426580E-1,-2.819509506E-1,1.366731524E-1,1.989502609E-1
9.406460910E-1,-2.697336376E-1,9.146913141E-2,2.264391929E-1
9.426474570E-1,-2.569054961E-1,4.748683050E-2,2.392673641E-1
9.446487900E-1,-2.532402873E-1,1.694356836E-2,2.472086251E-1
9.466501230E-1,-2.373578101E-1,-4.475382343E-2,2.618693709E-1
9.486514890E-1,-2.281948179E-1,-9.667737037E-2,2.740866840E-1
9.506531550E-1,-2.233078927E-1,-1.205011159E-1,2.801953554E-1
9.526544880E-1,-2.110905945E-1,-1.767007113E-1,2.942452431E-1
9.546558540E-1,-1.921537817E-1,-2.329003215E-1,3.046299517E-1
9.566571870E-1,-1.872668415E-1,-2.493936718E-1,3.027973771E-1
9.586585200E-1,-1.719952226E-1,-2.921542227E-1,3.162363768E-1
9.606591530E-1,-1.640539765E-1,-3.000954986E-1,3.205124438E-1
9.626604860E-1,-1.432845443E-1,-3.275844455E-1,3.400601149E-1
9.646618190E-1,-1.249585971E-1,-3.349148333E-1,3.431144357E-1
9.666631850E-1,-1.188499480E-1,-3.355256617E-1,3.327297270E-1
9.686645180E-1,-9.808052331E-2,-3.306387663E-1,3.192906976E-1
9.706658510E-1,-7.242418826E-2,-2.952085435E-1,2.875257134E-1
9.726671840E-1,-6.142860651E-2,-2.774934769E-1,2.710323632E-1
9.746685170E-1,-2.783101983E-2,-2.396198213E-1,2.472086251E-1
9.766698500E-1,6.377433427E-3,-2.255699337E-1,2.111675590E-1
9.806641160E-1,5.158146471E-2,-2.066331208E-1,1.745156497E-1
9.826654490E-1,5.524665490E-2,-2.035787851E-1,1.537462324E-1
9.846668490E-1,9.922894835E-2,-2.096874416E-1,1.195377707E-1
9.866682490E-1,1.297722161E-1,-2.096874416E-1,7.738807797E-2
9.886696820E-1,1.468764395E-1,-2.176286727E-1,4.806654528E-2
9.906710820E-1,1.780305654E-1,-2.249590605E-1,-7.522194646E-3
9.926724150E-1,2.220128626E-1,-2.408415675E-1,-5.883487687E-2
9.946737810E-1,2.427822948E-1,-2.530588806E-1,-8.693467826E-2
9.966748470E-1,2.855428457E-1,-2.768825889E-1,-1.510755271E-1
9.986761800E-1,3.173078299E-1,-3.031498194E-1,-2.097185999E-1
1.002676779E0,3.686205149E-1,-3.416343331E-1,-2.818006873E-1
1.004678112E0,3.997746706E-1,-3.569059670E-1,-3.117330968E-1
1.006679478E0,4.187114835E-1,-3.587385416E-1,-3.221178055E-1
1.008681511E0,4.455895424E-1,-3.428560495E-1,-3.465524018E-1
1.010682844E0,4.590286016E-1,-3.312496245E-1,-3.557153940E-1
1.012684210E0,4.761328101E-1,-3.019281030E-1,-3.697652817E-1
1.014685543E0,4.920153022E-1,-2.884890437E-1,-3.807608783E-1
1.016687576E0,4.969022274E-1,-2.842129767E-1,-3.813717365E-1
1.018688942E0,5.115630031E-1,-2.811586559E-1,-3.807608783E-1
1.020690275E0,5.140064955E-1,-2.878781855E-1,-3.734304905E-1
1.022691275E0,5.140064955E-1,-2.952085435E-1,-3.715978563E-1
1.024692641E0,5.195041895E-1,-3.159779906E-1,-3.630457819E-1
1.026693974E0,5.164498687E-1,-3.440777957E-1,-3.636566401E-1
1.028695307E0,5.188933611E-1,-3.630146086E-1,-3.575479686E-1
1.030696673E0,5.109521151E-1,-3.960013390E-1,-3.496067226E-1
1.032698006E0,5.115630031E-1,-4.192141891E-1,-3.404437602E-1
1.034701872E0,5.036217570E-1,-4.534226656E-1,-3.367785513E-1
1.036703238E0,5.005674362E-1,-4.955723584E-1,-3.245612383E-1
1.038704571E0,4.950696528E-1,-5.108439922E-1,-3.190634847E-1
1.040705904E0,4.804088771E-1,-5.505502224E-1,-3.068461716E-1
1.042707270E0,4.694133103E-1,-5.762066245E-1,-2.958505750E-1
1.044708603E0,4.651372433E-1,-5.896456242E-1,-2.860767543E-1
1.046709936E0,4.590286016E-1,-6.140801907E-1,-2.701942325E-1
1.048711269E0,4.431460798E-1,-6.195780039E-1,-2.549226284E-1
1.050712602E0,4.388700128E-1,-6.244649887E-1,-2.457596362E-1
1.052714602E0,4.248201251E-1,-6.244649887E-1,-2.329314798E-1
1.054715935E0,4.174897373E-1,-6.256866455E-1,-2.201033086E-1
1.056717268E0,4.040507078E-1,-6.146910787E-1,-2.011664808E-1
1.058718634E0,3.979420364E-1,-5.920890570E-1,-1.773427278E-1
1.060719967E0,3.912225366E-1,-5.792609453E-1,-1.626819670E-1
1.062721300E0,3.808378279E-1,-5.358894467E-1,-1.376364827E-1
1.064722666E0,3.698422611E-1,-4.845767915E-1,-1.040389016E-1
1.066723999E0,3.686205149E-1,-4.522009194E-1,-8.937813342E-2
1.068724632E0,3.600684106E-1,-3.831731677E-1,-6.188920140E-2
1.070725998E0,3.478510976E-1,-3.062041402E-1,-3.134594113E-2
1.072727331E0,3.490728438E-1,-2.518371344E-1,-1.851776801E-2
1.074728664E0,3.460185230E-1,-1.522661000E-1,8.971166797E-3
1.076729264E0,3.466293514E-1,-4.902987555E-2,3.523837402E-2
1.078730597E0,3.405207098E-1,1.205664687E-2,4.317962006E-2
1.080731930E0,3.423533440E-1,1.171254739E-1,6.394904107E-2
1.082733630E0,3.472402394E-1,1.678272784E-1,7.250115275E-2
1.084734963E0,3.521271646E-1,2.649548650E-1,8.594018221E-2
1.086736296E0,3.490728438E-1,3.492542803E-1,1.006009504E-1
1.088737662E0,3.466293514E-1,3.889605105E-1,1.018226817E-1
1.090738995E0,3.533489108E-1,4.616534710E-1,1.079313383E-1
1.092740328E0,3.539597392E-1,5.221291780E-1,1.042661443E-1
1.096742627E0,3.625118732E-1,5.832156539E-1,1.030444205E-1
1.098744127E0,3.686205149E-1,6.119263172E-1,9.693576396E-2
1.100752227E0,3.698422611E-1,6.247544885E-1,9.021624923E-2
1.102753560E0,3.759509027E-1,6.406369805E-1,7.799893618E-2
1.104754893E0,3.777835071E-1,6.491891146E-1,7.616634667E-2
1.106756259E0,3.851138949E-1,6.424695849E-1,6.272730976E-2
1.108757592E0,3.912225366E-1,6.436913013E-1,5.478606001E-2
1.110758925E0,3.912225366E-1,6.394152641E-1,4.745567590E-2
1.112759625E0,3.967203498E-1,6.113154292E-1,3.584923968E-2
1.114760958E0,3.961094618E-1,5.868808627E-1,2.057760581E-2
1.116762291E0,3.948877156E-1,5.716091990E-1,1.507981960E-2
1.118763624E0,3.936659992E-1,5.288486481E-1,4.190535401E-4
1.120765224E0,3.973311782E-1,4.775359631E-1,-1.546344254E-2
1.122766557E0,3.979420364E-1,4.494361579E-1,-2.035036497E-2
1.124768590E0,3.930551410E-1,3.950691521E-1,-2.401555702E-2
1.126769923E0,3.863356113E-1,3.297065794E-1,-3.928718716E-2
1.128771289E0,3.869464695E-1,2.948872745E-1,-4.234151542E-2
1.130772622E0,3.857247531E-1,2.313572764E-1,-5.394795164E-2
1.132773955E0,3.814486861E-1,1.983705461E-1,-6.005660444E-2
1.134775321E0,3.753400147E-1,1.336188316E-1,-6.555438787E-2
1.136776721E0,3.698422611E-1,6.642365456E-2,-7.349564135E-2
1.138778054E0,3.704531193E-1,3.282606602E-2,-7.654996216E-2
1.140779354E0,3.661770523E-1,-3.314737976E-2,-8.082602918E-2
1.142780687E0,3.594575524E-1,-9.912082553E-2,-7.899343222E-2
1.144782020E0,3.661770523E-1,-1.278315037E-1,-8.143688738E-2
1.146783386E0,3.606792688E-1,-1.907506138E-1,-8.632381260E-2
1.148784719E0,3.582358062E-1,-2.420632988E-1,-8.143688738E-2
1.150786052E0,3.557923436E-1,-2.683305144E-1,-7.777170092E-2
1.152787418E0,3.570140600E-1,-3.147562444E-1,-7.471737266E-2
1.154789451E0,3.539597392E-1,-3.361365497E-1,-7.288477570E-2
1.158790051E0,3.557923436E-1,-3.837840259E-1,-5.578054860E-2
1.162785650E0,3.570140600E-1,-3.886709511E-1,-4.600670561E-2
1.164787016E0,3.612901270E-1,-3.788971007E-1,-3.195680305E-2
1.166788349E0,3.606792688E-1,-3.648472130E-1,-2.829161286E-2
1.168789682E0,3.612901270E-1,-3.300278783E-1,-1.790690422E-2
1.170791048E0,3.637336195E-1,-2.866564691E-1,-9.354790673E-3
1.172792381E0,3.680096567E-1,-2.622218728E-1,-8.133059368E-3
1.174793714E0,3.692313731E-1,-1.944158077E-1,1.640783972E-3
1.176795080E0,3.747291863E-1,-1.314966828E-1,4.695110489E-3
1.178796913E0,3.759509027E-1,-9.423390031E-2,2.118847333E-2
1.180797979E0,3.777835071E-1,-1.970834471E-2,2.424279787E-2
1.182799345E0,3.777835071E-1,2.060876042E-2,2.729712427E-2
1.184799978E0,3.857247531E-1,9.330172837E-2,3.462750465E-2
1.186801311E0,3.857247531E-1,1.678272784E-1,3.340577707E-2
1.188802644E0,3.869464695E-1,2.075335234E-1,3.523837402E-2
1.190803977E0,3.881682158E-1,2.759504318E-1,3.707096726E-2
1.192805510E0,3.893899620E-1,3.345935047E-1,3.768183663E-2
1.194806843E0,3.845030069E-1,3.645258844E-1,3.829269856E-2
1.196808176E0,3.851138949E-1,4.017886519E-1,3.951442987E-2
1.198809542E0,3.863356113E-1,4.396623373E-1,4.134702682E-2
1.200810942E0,3.820595741E-1,4.579882920E-1,3.829269856E-2
1.202812275E0,3.802269697E-1,4.824228883E-1,4.256875440E-2
1.204813641E0,3.765617609E-1,4.891423881E-1,4.440135136E-2
1.206814974E0,3.704531193E-1,5.031923056E-1,4.256875440E-2
1.208816307E0,3.625118732E-1,5.117444396E-1,4.867740721E-2
1.210817673E0,3.625118732E-1,5.147987604E-1,4.745567590E-2
1.212819006E0,3.502945602E-1,5.111335516E-1,4.684481025E-2
1.214819639E0,3.454076648E-1,5.031923056E-1,5.234259740E-2
1.216821005E0,3.399098516E-1,5.044140220E-1,5.112086982E-2
1.218822138E0,3.283033967E-1,4.940293133E-1,5.784038454E-2
1.220823804E0,3.173078299E-1,4.775359631E-1,5.539692566E-2
1.222825170E0,3.154752553E-1,4.702055752E-1,5.845125020E-2
1.224826503E0,3.020362258E-1,4.616534710E-1,6.150557846E-2
1.226827536E0,2.959275544E-1,4.500470161E-1,6.028384715E-2
1.228828902E0,2.867645919E-1,4.335536659E-1,6.578163058E-2
1.230830235E0,2.794342041E-1,4.207254946E-1,6.639250368E-2
1.232831568E0,2.745472789E-1,4.109516740E-1,7.494460791E-2
1.234832934E0,2.684386373E-1,3.975126147E-1,7.250115275E-2
1.236834200E0,2.629408240E-1,3.804083765E-1,7.494460791E-2
1.238835033E0,2.580539286E-1,3.688019514E-1,7.860980183E-2
1.240836399E0,2.446148843E-1,3.602498472E-1,8.044239879E-2
1.242837732E0,2.378953546E-1,3.400912881E-1,8.166413009E-2
1.244839065E0,2.311758399E-1,3.309283257E-1,8.594018221E-2
1.246840365E0,2.281215191E-1,3.205436170E-1,9.388143569E-2
1.248841698E0,2.232345939E-1,3.016067743E-1,1.006009504E-1
1.250843031E0,2.214019895E-1,2.918329239E-1,1.024335474E-1
1.252844197E0,2.128498852E-1,2.808373272E-1,1.085421965E-1
1.254845530E0,2.055194974E-1,2.771721482E-1,1.134291217E-1
1.256846863E0,1.975782663E-1,2.612896860E-1,1.177051738E-1
1.258848196E0,1.908587366E-1,2.509049475E-1,1.195377707E-1
1.260849529E0,1.878044158E-1,2.405202538E-1,1.238138378E-1
1.262850862E0,1.798631549E-1,2.325789928E-1,1.299224794E-1
1.264852195E0,1.713110507E-1,2.191399634E-1,1.348094046E-1
1.266853528E0,1.688675880E-1,2.148639113E-1,1.341985464E-1
1.268854828E0,1.584828794E-1,2.099769861E-1,1.396963298E-1
1.270856161E0,1.523742229E-1,2.020357400E-1,1.458049715E-1
1.272857494E0,1.493199021E-1,1.910401583E-1,1.476375759E-1
1.274858860E0,1.395460516E-1,1.843206435E-1,1.494701654E-1
1.276860193E0,1.419895142E-1,1.757685393E-1,1.537462324E-1
1.278861526E0,1.364917308E-1,1.672164202E-1,1.635200828E-1
1.280862892E0,1.279396117E-1,1.568317115E-1,1.690178663E-1
1.282864225E0,1.273287535E-1,1.586643010E-1,1.726830602E-1
1.284865558E0,1.193875074E-1,1.488904506E-1,1.769591123E-1
1.286867224E0,1.138897166E-1,1.433926672E-1,1.806242913E-1
1.288868557E0,1.102245227E-1,1.342296898E-1,1.861220896E-1
1.290869890E0,1.047267392E-1,1.244558468E-1,1.922307462E-1
1.292871256E0,9.128770232E-2,1.177363321E-1,1.965067834E-1
1.294872589E0,9.128770232E-2,1.104059517E-1,1.983393878E-1
1.296873989E0,8.823337406E-2,1.049081683E-1,2.068915069E-1
1.298875355E0,8.151385188E-2,9.207999706E-2,2.068915069E-1
1.300876621E0,8.090299368E-2,9.085825831E-2,2.105567008E-1
1.302877954E0,7.662694156E-2,8.291701227E-2,2.154436260E-1
1.304879320E0,6.807482243E-2,7.803008705E-2,2.154436260E-1
1.306880720E0,6.196616963E-2,6.947798282E-2,2.233848721E-1
1.308882053E0,6.807482243E-2,5.848240480E-2,2.258283198E-1
1.310883419E0,5.952271074E-2,5.664981157E-2,2.258283198E-1
1.312884752E0,5.952271074E-2,4.748683050E-2,2.282717824E-1
1.314886085E0,4.852713272E-2,4.382164031E-2,2.288826555E-1
1.316887451E0,5.035972968E-2,4.321077466E-2,2.307152599E-1
1.318888484E0,4.608367383E-2,4.259990901E-2,2.307152599E-1
1.320889817E0,4.180761799E-2,3.954558074E-2,2.337695807E-1
1.322891183E0,3.997502103E-2,3.832385316E-2,2.343804538E-1
1.324892516E0,3.997502103E-2,4.321077466E-2,2.343804538E-1
1.326893849E0,4.364021122E-2,4.321077466E-2,2.331587076E-1
1.328895249E0,4.058588669E-2,5.298461765E-2,2.319369763E-1
1.330896582E0,3.692069650E-2,5.237375200E-2,2.337695807E-1
1.332897915E0,3.814242408E-2,6.031500176E-2,2.301043868E-1
1.334901048E0,3.508809954E-2,6.214759871E-2,2.313261181E-1
1.336902381E0,3.692069650E-2,7.436490059E-2,2.276609242E-1
1.338903581E0,3.875329345E-2,7.803008705E-2,2.264391929E-1
1.340904914E0,3.997502103E-2,9.146913141E-2,2.276609242E-1
1.342905947E0,4.058588669E-2,1.000212431E-1,2.276609242E-1
1.344907247E0,4.302934557E-2,1.012429744E-1,2.221631259E-1
1.346908580E0,4.180761799E-2,1.116276830E-1,2.178870887E-1
1.348909913E0,4.119675234E-2,1.214015260E-1,2.197196782E-1
1.350911279E0,4.669453949E-2,1.201797947E-1,2.197196782E-1
1.352912612E0,4.669453949E-2,1.330079585E-1,2.191088051E-1
1.354919745E0,5.646838248E-2,1.354514360E-1,2.184979469E-1
1.356921111E0,5.341405794E-2,1.354514360E-1,2.184979469E-1
1.358922444E0,5.463578925E-2,1.440035403E-1,2.191088051E-1
1.360923844E0,5.952271074E-2,1.452252716E-1,2.172762156E-1
1.362925310E0,6.196616963E-2,1.482796073E-1,2.142218947E-1
1.364926643E0,6.318789721E-2,1.580534428E-1,2.160544842E-1
1.366927976E0,6.624222547E-2,1.568317115E-1,2.166653425E-1
1.368929276E0,6.929655373E-2,1.617186219E-1,2.093349546E-1
1.370930609E0,7.723779976E-2,1.696598828E-1,2.099458277E-1
1.372931775E0,7.540520281E-2,1.678272784E-1,2.038371712E-1
1.374933075E0,8.578991890E-2,1.745467931E-1,2.020045817E-1
1.376934408E0,8.701164275E-2,1.782119870E-1,2.007828504E-1
1.378936041E0,9.434202313E-2,1.824880540E-1,1.952850670E-1
1.380937841E0,1.016724110E-1,1.855423748E-1,1.910089999E-1
1.382939174E0,1.059484705E-1,1.867641211E-1,1.891764104E-1
1.384940507E0,1.163331792E-1,1.934836209E-1,1.849003583E-1
1.386941873E0,1.224418357E-1,1.940944940E-1,1.769591123E-1
1.388942906E0,1.273287535E-1,2.014248669E-1,1.757373810E-1
1.390944239E0,1.340482682E-1,2.130313069E-1,1.708504707E-1
1.392945605E0,1.444329768E-1,2.191399634E-1,1.629092097E-1
1.396946571E0,1.584828794E-1,2.228051573E-1,1.506919116E-1
1.398948071E0,1.615372002E-1,2.258594781E-1,1.433615237E-1
1.400949404E0,1.664241403E-1,2.307464033E-1,1.421397924E-1
1.402951037E0,1.823066324E-1,2.276920825E-1,1.323659569E-1
1.404952437E0,1.841392219E-1,2.289137989E-1,1.323659569E-1
1.406953770E0,1.890261322E-1,2.331898659E-1,1.183160469E-1
1.408955136E0,1.994108558E-1,2.295246720E-1,1.122073904E-1
1.410956469E0,1.994108558E-1,2.258594781E-1,1.073204726E-1
1.412957802E0,2.073521018E-1,2.228051573E-1,1.048770174E-1
1.416954701E0,2.091846913E-1,2.160856277E-1,9.571403265E-2
1.418956034E0,2.134607583E-1,2.081443965E-1,8.227499574E-2
1.420957400E0,2.128498852E-1,2.044792026E-1,8.410759270E-2
1.422958633E0,2.214019895E-1,1.971488148E-1,7.677720487E-2
1.424959966E0,2.207911313E-1,1.904293001E-1,6.944682449E-2
1.426961332E0,2.238454521E-1,1.824880540E-1,6.578163058E-2
1.428962732E0,2.189585418E-1,1.733250767E-1,5.784038454E-2
1.430964065E0,2.183476686E-1,1.611077785E-1,5.051000044E-2
1.432971065E0,2.214019895E-1,1.458361298E-1,5.234259740E-2
1.434972631E0,2.189585418E-1,1.354514360E-1,4.440135136E-2
1.436973964E0,2.140716165E-1,1.207906678E-1,4.134702682E-2
1.438975330E0,2.140716165E-1,1.104059517E-1,4.317962006E-2
1.440976230E0,2.128498852E-1,9.574518353E-2,3.951442987E-2
1.442977563E0,2.079629600E-1,7.375403494E-2,4.073616117E-2
1.444978929E0,2.091846913E-1,5.848240480E-2,3.523837402E-2
1.446980262E0,2.049086243E-1,3.893471882E-2,4.134702682E-2
1.448981895E0,2.055194974E-1,2.916087396E-2,4.317962006E-2
1.450983261E0,2.104064226E-1,-7.715228130E-4,4.501221329E-2
1.452984527E0,2.091846913E-1,-1.848661341E-2,5.356433243E-2
1.454985727E0,2.097955644E-1,-3.314737976E-2,5.051000044E-2
1.456987093E0,2.049086243E-1,-5.574939400E-2,5.539692566E-2
1.458988393E0,2.042977810E-1,-7.590795308E-2,5.600779131E-2
1.460989726E0,2.042977810E-1,-8.446005732E-2,6.028384715E-2
1.462991092E0,2.030760348E-1,-9.973169118E-2,6.272730976E-2
1.464992425E0,2.067412287E-1,-1.186685190E-1,6.639250368E-2
1.466993758E0,2.061303705E-1,-1.259988993E-1,6.822510064E-2
1.468995091E0,2.091846913E-1,-1.333292872E-1,7.860980183E-2
1.470996424E0,2.061303705E-1,-1.431031227E-1,8.349672705E-2
1.472997757E0,2.085738182E-1,-1.504334956E-1,9.449230134E-2
1.474999090E0,2.091846913E-1,-1.614290774E-1,1.030444205E-1
1.477000423E0,2.097955644E-1,-1.583747566E-1,1.079313383E-1
1.479001723E0,2.159042060E-1,-1.589856297E-1,1.122073904E-1
1.481002989E0,2.128498852E-1,-1.577638835E-1,1.244246960E-1
1.483004322E0,2.189585418E-1,-1.534878314E-1,1.262573004E-1
1.485005688E0,2.146824747E-1,-1.504334956E-1,1.354202777E-1
1.487007021E0,2.195694000E-1,-1.412705183E-1,1.494701654E-1
1.489008354E0,2.171259522E-1,-1.363836080E-1,1.500810385E-1
1.491009720E0,2.220128626E-1,-1.235554367E-1,1.561896950E-1
1.495006752E0,2.159042060E-1,-8.140573651E-2,1.696287245E-1
1.497008818E0,2.183476686E-1,-5.391679704E-2,1.745156497E-1
1.499010151E0,2.146824747E-1,-4.047776386E-2,1.794025749E-1
1.501011484E0,2.159042060E-1,-1.606575534E-4,1.867329627E-1
1.503012850E0,2.177367955E-1,3.710212186E-2,1.891764104E-1
1.505014250E0,2.214019895E-1,5.664981157E-2,1.910089999E-1
1.507015583E0,2.195694000E-1,1.012429744E-1,1.910089999E-1
1.509016949E0,2.159042060E-1,1.446144134E-1,1.910089999E-1
1.511018282E0,2.159042060E-1,1.696598828E-1,1.903981417E-1
1.513019648E0,2.189585418E-1,2.093661129E-1,1.897872835E-1
1.515021048E0,2.262889296E-1,2.606787980E-1,1.842894852E-1
1.517022381E0,2.262889296E-1,2.845025361E-1,1.794025749E-1
1.519023414E0,2.317867130E-1,3.272631168E-1,1.818460375E-1
1.521024780E0,2.293432504E-1,3.565846682E-1,1.757373810E-1
1.523026346E0,2.330084443E-1,3.969017565E-1,1.726830602E-1
1.525027579E0,2.336193025E-1,4.359971285E-1,1.629092097E-1
1.527028945E0,2.397279441E-1,4.512687624E-1,1.610766202E-1
1.529030278E0,2.348410338E-1,4.854772091E-1,1.537462324E-1
1.531031611E0,2.427822948E-1,5.111335516E-1,1.458049715E-1
1.533032977E0,2.354519069E-1,5.282378197E-1,1.421397924E-1
1.535034310E0,2.336193025E-1,5.435094237E-1,1.366419941E-1
1.537035643E0,2.281215191E-1,5.557267666E-1,1.262573004E-1
1.539037043E0,2.232345939E-1,5.526723862E-1,1.238138378E-1
1.541038443E0,2.220128626E-1,5.532832742E-1,1.195377707E-1
1.543039776E0,2.085738182E-1,5.404551029E-1,1.109856665E-1
1.545041109E0,2.024651766E-1,5.312921405E-1,1.042661443E-1
1.547042442E0,1.981891245E-1,5.154095888E-1,9.815749526E-2
1.549043808E0,1.926913261E-1,5.007488132E-1,9.693576396E-2
1.551045141E0,1.823066324E-1,4.787576795E-1,9.571403265E-2
1.553048607E0,1.694784611E-1,4.531013370E-1,9.265970439E-2
1.555049973E0,1.700893193E-1,4.402731955E-1,8.838365227E-2
1.557050606E0,1.609263420E-1,4.103407860E-1,8.655105531E-2
1.559051939E0,1.542068124E-1,3.791866601E-1,8.471845835E-2
1.561053305E0,1.529850960E-1,3.639150262E-1,9.082710743E-2
1.563054638E0,1.529850960E-1,3.242087960E-1,9.388143569E-2
1.565055904E0,1.438221186E-1,2.906112075E-1,9.937922657E-2
1.567057270E0,1.432112455E-1,2.710635066E-1,1.006009504E-1
1.569058603E0,1.432112455E-1,2.289137989E-1,1.036552787E-1
1.571059936E0,1.419895142E-1,2.154747844E-1,1.067096069E-1
1.573061336E0,1.432112455E-1,1.763793975E-1,1.146508530E-1
1.575062669E0,1.407677978E-1,1.336188316E-1,1.232029647E-1
1.577064002E0,1.462655813E-1,1.146820039E-1,1.280898899E-1
1.579065702E0,1.548176855E-1,7.375403494E-2,1.384745985E-1
1.581066835E0,1.566502899E-1,2.793914452E-2,1.451941282E-1
1.583067935E0,1.597046107E-1,7.780590560E-3,1.525245011E-1
1.585069401E0,1.682567298E-1,-3.742343932E-2,1.592440158E-1
1.587070734E0,1.725327820E-1,-8.995784819E-2,1.696287245E-1
1.589072067E0,1.804740280E-1,-1.113381311E-1,1.739047915E-1
1.591073433E0,1.865826845E-1,-1.602073461E-1,1.800134480E-1
1.593074766E0,1.920804679E-1,-2.096874416E-1,1.934524626E-1
1.595081299E0,1.963565201E-1,-2.274025232E-1,1.910089999E-1
1.597082665E0,2.061303705E-1,-2.774934769E-1,1.983393878E-1
1.599083998E0,2.079629600E-1,-2.982628942E-1,1.983393878E-1
1.601085331E0,2.097955644E-1,-3.428560495E-1,2.075023651E-1
1.603086697E0,2.159042060E-1,-3.874492049E-1,2.154436260E-1
1.605088030E0,2.238454521E-1,-4.088295102E-1,2.148327529E-1
1.607089363E0,2.323975712E-1,-4.430379570E-1,2.172762156E-1
1.609090696E0,2.366736233E-1,-4.821333289E-1,2.209414095E-1
1.611091896E0,2.433931381E-1,-4.943506420E-1,2.178870887E-1
1.615092429E0,2.525561154E-1,-5.444415808E-1,2.172762156E-1
1.617093762E0,2.598865032E-1,-5.584915280E-1,2.111675590E-1
1.619095128E0,2.586647570E-1,-5.688762069E-1,2.148327529E-1
1.621096461E0,2.653843164E-1,-5.755956769E-1,2.105567008E-1
1.623097794E0,2.714929581E-1,-5.755956769E-1,2.068915069E-1
1.625099160E0,2.696603537E-1,-5.664327145E-1,1.977285296E-1
1.627100493E0,2.751581371E-1,-5.621566772E-1,1.977285296E-1
1.629101826E0,2.806559205E-1,-5.462741852E-1,1.922307462E-1
1.631103126E0,2.861537039E-1,-5.248939395E-1,1.842894852E-1
1.633104459E0,2.904297709E-1,-5.145092010E-1,1.830677688E-1
1.635105792E0,2.940949798E-1,-4.870202541E-1,1.757373810E-1
1.637107158E0,2.971493006E-1,-4.522009194E-1,1.708504707E-1
1.639108491E0,3.026470542E-1,-4.393727779E-1,1.684069932E-1
1.641110024E0,2.995927334E-1,-4.033317268E-1,1.574114263E-1
1.643111390E0,3.026470542E-1,-3.843948841E-1,1.519136280E-1
1.645112723E0,3.020362258E-1,-3.422452211E-1,1.488593072E-1
1.647114056E0,3.002036214E-1,-3.068149984E-1,1.396963298E-1
1.649115422E0,3.075340092E-1,-2.829912603E-1,1.366419941E-1
1.651116488E0,3.087557256E-1,-2.475610822E-1,1.299224794E-1
1.653117821E0,3.124209344E-1,-2.157960832E-1,1.207595095E-1
1.657115320E0,3.118100464E-1,-1.608182192E-1,1.152617186E-1
1.659116653E0,3.111991882E-1,-1.278315037E-1,1.140399873E-1
1.661118019E0,3.142535090E-1,-1.162250489E-1,1.115965247E-1
1.663119352E0,3.166970015E-1,-8.873611689E-2,1.097639278E-1
1.665120685E0,3.228056431E-1,-6.552323699E-2,1.097639278E-1
1.667122051E0,3.289142847E-1,-5.452766269E-2,1.085421965E-1
1.669123384E0,3.270817101E-1,-4.475382343E-2,1.109856665E-1
1.671124850E0,3.301360309E-1,-3.742343932E-2,1.115965247E-1
1.673126216E0,3.344120681E-1,-3.070392087E-2,1.103747934E-1
1.675127549E0,3.386881351E-1,-2.398440242E-2,1.183160469E-1
1.677128882E0,3.411315978E-1,-2.459526807E-2,1.219812408E-1
1.679130215E0,3.405207098E-1,-3.131478652E-2,1.244246960E-1
1.681131548E0,3.447967768E-1,-4.475382343E-2,1.262573004E-1
1.683132881E0,3.460185230E-1,-4.841900989E-2,1.311442107E-1
1.685133914E0,3.447967768E-1,-7.224275917E-2,1.262573004E-1
1.687135247E0,3.466293514E-1,-9.667737037E-2,1.341985464E-1
1.689136580E0,3.466293514E-1,-1.027860194E-1,1.366419941E-1
1.691137980E0,3.466293514E-1,-1.284423470E-1,1.348094046E-1
1.693139313E0,3.484619856E-1,-1.443248540E-1,1.384745985E-1
1.695140679E0,3.423533440E-1,-1.754789948E-1,1.403071880E-1
1.697142012E0,3.423533440E-1,-2.023570538E-1,1.360311359E-1
1.699146612E0,3.368555307E-1,-2.182395458E-1,1.378637403E-1
1.701147978E0,3.362446725E-1,-2.481719553E-1,1.341985464E-1
1.703149411E0,3.289142847E-1,-2.744391561E-1,1.299224794E-1
1.705150744E0,3.270817101E-1,-2.903216481E-1,1.274790317E-1
1.707152110E0,3.203621805E-1,-3.171997070E-1,1.232029647E-1
1.709153376E0,3.166970015E-1,-3.398017287E-1,1.213703677E-1
1.711154976E0,3.099774420E-1,-3.501864374E-1,1.140399873E-1
1.713156342E0,3.069231212E-1,-3.764536381E-1,1.183160469E-1
1.715157675E0,3.057014048E-1,-3.972230554E-1,1.042661443E-1
1.717159008E0,3.014253676E-1,-4.069969058E-1,1.012118235E-1
1.719160374E0,2.940949798E-1,-4.259337485E-1,9.510316700E-2
1.721161707E0,2.928732336E-1,-4.363184571E-1,8.899451792E-2
1.723162740E0,2.879863083E-1,-4.473140240E-1,7.983153313E-2
1.725164106E0,2.855428457E-1,-4.558661282E-1,7.738807797E-2
1.727165439E0,2.788233459E-1,-4.558661282E-1,7.372288406E-2
1.729166772E0,2.763798833E-1,-4.595313072E-1,7.005769014E-2
1.731168138E0,2.721038163E-1,-4.601421952E-1,6.211644411E-2
1.733169471E0,2.684386373E-1,-4.601421952E-1,5.600779131E-2
1.735170804E0,2.708820701E-1,-4.479248822E-1,5.539692566E-2
1.737172104E0,2.672168911E-1,-4.344858527E-1,4.684481025E-2
1.739173437E0,2.629408240E-1,-4.204359353E-1,4.684481025E-2
1.741174770E0,2.604973614E-1,-4.014991224E-1,4.256875440E-2
1.743176136E0,2.574430406E-1,-3.929470181E-1,4.134702682E-2
1.745177769E0,2.513343990E-1,-3.660689294E-1,3.035145067E-2
1.747179069E0,2.427822948E-1,-3.343039453E-1,2.546452917E-2
1.749180435E0,2.372844964E-1,-3.159779906E-1,2.546452917E-2
1.751181601E0,2.360627651E-1,-2.817695439E-1,2.302106842E-2
1.753182934E0,2.305649668E-1,-2.487828135E-1,2.057760581E-2
1.755184267E0,2.287323773E-1,-2.329003215E-1,2.057760581E-2
1.757185600E0,2.152933478E-1,-1.968592703E-1,2.179933712E-2
1.761184699E0,2.036869079E-1,-1.644834131E-1,2.546452917E-2
1.763185865E0,1.939130723E-1,-1.424922645E-1,3.096231632E-2
1.765186931E0,1.890261322E-1,-1.345510036E-1,3.707096726E-2
1.767188264E0,1.841392219E-1,-1.192793772E-1,4.562308267E-2
1.769189664E0,1.737545133E-1,-1.046186164E-1,5.722952262E-2
1.771191030E0,1.676458567E-1,-1.046186164E-1,6.333817542E-2
1.773192363E0,1.572611481E-1,-1.046186164E-1,8.471845835E-2
1.775193696E0,1.438221186E-1,-1.143924594E-1,1.012118235E-1
1.777195062E0,1.352699995E-1,-1.156141907E-1,1.103747934E-1
1.779196395E0,1.254961491E-1,-1.339401454E-1,1.360311359E-1
1.781197728E0,1.169440448E-1,-1.510443687E-1,1.610766202E-1
1.783204028E0,1.096136644E-1,-1.602073461E-1,1.739047915E-1
1.785205028E0,9.556376189E-2,-1.913614869E-1,2.062806338E-1
1.787206361E0,8.090299368E-2,-2.261808068E-1,2.307152599E-1
1.789207461E0,7.051828504E-2,-2.445067614E-1,2.435434312E-1
1.791208794E0,5.524665490E-2,-2.805477977E-1,2.716432214E-1
1.793210127E0,4.302934557E-2,-2.982628942E-1,2.875257134E-1
1.795211493E0,2.836858109E-2,-3.416343331E-1,3.162363768E-1
1.797212893E0,6.377433427E-3,-3.868383467E-1,3.388383985E-1
1.799214193E0,-3.396410728E-3,-4.033317268E-1,3.547208905E-1
1.801215559E0,-2.294410020E-2,-4.418162107E-1,3.852641582E-1
1.803216892E0,-4.310265183E-2,-4.796898663E-1,4.096987545E-1
1.805218225E0,-5.348736048E-2,-5.004593134E-1,4.194726348E-1
1.807219625E0,-6.570466608E-2,-5.334460735E-1,4.481832981E-1
1.809220658E0,-8.280888945E-2,-5.615458488E-1,4.640657604E-1
1.811222158E0,-9.624792635E-2,-5.725413561E-1,4.732287526E-1
1.813223524E0,-1.084652320E-1,-5.908674002E-1,4.939981699E-1
1.815224857E0,-1.157956198E-1,-5.957542658E-1,5.013285279E-1
1.817226190E0,-1.341215670E-1,-6.098042130E-1,5.098806620E-1
1.819227223E0,-1.408410966E-1,-6.244649887E-1,5.178219080E-1
1.821228856E0,-1.475606114E-1,-6.256866455E-1,5.251522660E-1
1.823230256E0,-1.585561782E-1,-6.201888919E-1,5.282065868E-1
1.825231889E0,-1.664974391E-1,-6.104150414E-1,5.306500793E-1
1.827233222E0,-1.701626331E-1,-6.055281162E-1,5.312609076E-1
1.829234555E0,-1.768821478E-1,-5.890347362E-1,5.202654004E-1
1.831235888E0,-1.829908043E-1,-5.676544905E-1,5.147675872E-1
1.833237221E0,-1.836016476E-1,-5.517719984E-1,5.098806620E-1
1.835238587E0,-1.811581999E-1,-5.138983130E-1,5.037720203E-1
1.837239920E0,-1.787147373E-1,-4.748029411E-1,4.921655953E-1
1.839241253E0,-1.836016476E-1,-4.540335536E-1,4.823917150E-1
1.841242619E0,-1.787147373E-1,-4.131055474E-1,4.713961482E-1
1.845240985E0,-1.829908043E-1,-3.477429748E-1,4.445180893E-1
1.847242351E0,-1.823799312E-1,-3.031498194E-1,4.243595302E-1
1.849243684E0,-1.787147373E-1,-2.854347229E-1,4.151965678E-1
1.851245017E0,-1.781038642E-1,-2.457284778E-1,4.011466801E-1
1.853246383E0,-1.762712747E-1,-2.139634788E-1,3.791555166E-1
1.855247716E0,-1.756604165E-1,-1.974701434E-1,3.712142706E-1
1.857248716E0,-1.811581999E-1,-1.736463904E-1,3.498339951E-1
1.859250116E0,-1.823799312E-1,-1.443248540E-1,3.321188986E-1
1.861251449E0,-1.805473268E-1,-1.302749515E-1,3.205124438E-1
1.863252782E0,-1.903211772E-1,-1.082838029E-1,3.034082055E-1
1.865254148E0,-1.897103190E-1,-1.015642881E-1,2.960778177E-1
1.867255181E0,-1.976515651E-1,-7.835140824E-2,2.746975422E-1
1.869256814E0,-1.958189756E-1,-7.163188607E-2,2.630910873E-1
1.871258180E0,-1.988732964E-1,-6.307977438E-2,2.588150501E-1
1.873259513E0,-2.049819529E-1,-5.819285661E-2,2.459868789E-1
1.875260846E0,-1.988732964E-1,-5.636025965E-2,2.325478494E-1
1.877262212E0,-1.988732964E-1,-5.697112530E-2,2.282717824E-1
1.879263878E0,-2.031493485E-1,-5.574939400E-2,2.233848721E-1
1.881265211E0,-1.958189756E-1,-6.307977438E-2,2.184979469E-1
1.883266577E0,-1.958189756E-1,-6.307977438E-2,2.172762156E-1
1.885267910E0,-1.860451251E-1,-7.346448302E-2,2.166653425E-1
1.887269243E0,-1.829908043E-1,-9.117957950E-2,2.154436260E-1
1.889270609E0,-1.854342520E-1,-9.362304211E-2,2.105567008E-1
1.891271942E0,-1.738278270E-1,-1.064512134E-1,2.111675590E-1
1.893273275E0,-1.707734764E-1,-1.095055416E-1,2.136110216E-1
1.895274608E0,-1.671082973E-1,-1.266097575E-1,2.093349546E-1
1.897275941E0,-1.640539765E-1,-1.431031227E-1,2.123892903E-1
1.899276974E0,-1.585561782E-1,-1.455465853E-1,2.148327529E-1
1.901278307E0,-1.518366635E-1,-1.681486070E-1,2.160544842E-1
1.903279640E0,-1.500040740E-1,-1.852528155E-1,2.148327529E-1
1.905281373E0,-1.445062906E-1,-1.925832033E-1,2.136110216E-1
1.907282706E0,-1.383976340E-1,-2.188504189E-1,2.111675590E-1
1.909284306E0,-1.365650296E-1,-2.286242545E-1,2.081132382E-1
1.911285672E0,-1.341215670E-1,-2.432850152E-1,2.081132382E-1
1.913287005E0,-1.292346567E-1,-2.561132014E-1,2.038371712E-1
1.915288338E0,-1.280129254E-1,-2.646653056E-1,2.032263130E-1
1.917290038E0,-1.267911941E-1,-2.781043351E-1,1.983393878E-1
1.919291371E0,-1.231260002E-1,-2.884890437E-1,1.910089999E-1
1.921292837E0,-1.231260002E-1,-2.958194315E-1,1.922307462E-1
1.923294203E0,-1.280129254E-1,-3.049824238E-1,1.842894852E-1
1.925295536E0,-1.298455149E-1,-3.043715656E-1,1.757373810E-1
1.927297169E0,-1.328998357E-1,-3.104802072E-1,1.690178663E-1
1.929298535E0,-1.414519548E-1,-3.129236698E-1,1.525245011E-1
1.931299868E0,-1.475606114E-1,-3.000954986E-1,1.366419941E-1
1.933300901E0,-1.512258053E-1,-3.074258864E-1,1.268681586E-1
1.935302267E0,-1.609996557E-1,-3.000954986E-1,1.091530696E-1
1.937303600E0,-1.677191556E-1,-2.958194315E-1,9.876835346E-2
1.939304933E0,-1.811581999E-1,-2.842129767E-1,7.494460791E-2
1.941306299E0,-1.903211772E-1,-2.805477977E-1,5.051000044E-2
1.943307632E0,-1.988732964E-1,-2.701630890E-1,3.829269856E-2
1.945308965E0,-2.086471468E-1,-2.524479926E-1,1.935587637E-2
1.947310331E0,-2.214753032E-1,-2.420632988E-1,-2.024407499E-3
1.949311664E0,-2.239187658E-1,-2.359546423E-1,-1.240911707E-2
1.951312997E0,-2.343034595E-1,-2.267916501E-1,-3.317853436E-2
1.953314363E0,-2.385795265E-1,-2.170178294E-1,-5.333708972E-2
1.955315629E0,-2.410229892E-1,-2.145743519E-1,-5.700227991E-2
1.957316962E0,-2.391903996E-1,-2.066331208E-1,-7.410650700E-2
1.959318562E0,-2.361360639E-1,-2.084657103E-1,-8.693467826E-2
1.961319895E0,-2.343034595E-1,-2.133526355E-1,-8.815640956E-2
1.963321228E0,-2.324708700E-1,-2.145743519E-1,-9.793025255E-2
1.965322194E0,-2.288056761E-1,-2.170178294E-1,-9.793025255E-2
1.967323527E0,-2.208644450E-1,-2.359546423E-1,-1.040389016E-1
1.969324860E0,-2.129231840E-1,-2.481719553E-1,-1.009845734E-1
1.971326193E0,-2.019276172E-1,-2.585566640E-1,-9.976284951E-2
1.973327526E0,-1.897103190E-1,-2.842129767E-1,-1.009845734E-1
1.975328892E0,-1.860451251E-1,-3.019281030E-1,-9.426505864E-2
1.977330225E0,-1.799364686E-1,-3.098693192E-1,-9.915198386E-2
1.979331558E0,-1.664974391E-1,-3.373582661E-1,-9.426505864E-2
1.981332791E0,-1.622213721E-1,-3.587385416E-1,-9.182160348E-2
1.983334124E0,-1.548909843E-1,-3.727884591E-1,-9.121073037E-2
1.985335724E0,-1.475606114E-1,-3.990556598E-1,-9.059987217E-2
1.987337090E0,-1.481714845E-1,-4.063860476E-1,-8.754553646E-2
1.989338423E0,-1.432845443E-1,-4.265445769E-1,-8.082602918E-2
1.991339756E0,-1.438954175E-1,-4.387618899E-1,-7.532823831E-2
1.993341422E0,-1.390084922E-1,-4.528118074E-1,-7.532823831E-2
1.995342755E0,-1.347324401E-1,-4.589204788E-1,-6.738698483E-2
1.997344088E0,-1.353433132E-1,-4.674725533E-1,-5.822401121E-2
1.999346154E0,-1.377867609E-1,-4.705268741E-1,-5.272622406E-2
2.001347487E0,-1.347324401E-1,-4.662508667E-1,-4.600670561E-2
2.003348820E0,-1.335107088E-1,-4.583095908E-1,-3.745459020E-2
2.005350186E0,-1.298455149E-1,-4.497574866E-1,-3.256766871E-2
2.007351519E0,-1.316781193E-1,-4.350967109E-1,-2.157209627E-2
2.009352852E0,-1.322889775E-1,-4.088295102E-1,-1.424171217E-2
2.011354218E0,-1.322889775E-1,-3.947795928E-1,-9.354790673E-3
2.013355551E0,-1.292346567E-1,-3.617928624E-1,-4.467868246E-3
2.015356951E0,-1.304563731E-1,-3.398017287E-1,4.695110489E-3
2.017358251E0,-1.249585971E-1,-2.976520360E-1,1.141462848E-2
2.019359651E0,-1.225151345E-1,-2.518371344E-1,1.813414507E-2
2.021360984E0,-1.225151345E-1,-2.304568440E-1,2.241020277E-2
2.023362350E0,-1.127412841E-1,-1.760898381E-1,2.851885371E-2
2.025363683E0,-1.115195602E-1,-1.223337129E-1,3.890356421E-2
2.027365016E0,-1.060217768E-1,-9.423390031E-2,4.195788875E-2
2.029366382E0,-9.991311282E-2,-3.864516690E-2,4.928827286E-2
2.031374182E0,-9.197186679E-2,1.694356836E-2,5.417519435E-2
2.033375515E0,-9.013927728E-2,4.565423727E-2,5.661865696E-2
2.035376848E0,-8.586321771E-2,9.635604918E-2,5.906211957E-2
2.037378114E0,-8.097629249E-2,1.195689291E-1,5.600779131E-2
2.039379447E0,-7.242418826E-2,1.647729576E-1,6.089471281E-2
2.041380780E0,-6.814812124E-2,2.044792026E-1,6.150557846E-2
2.043382113E0,-6.692639738E-2,2.209725678E-1,6.028384715E-2
2.045383213E0,-6.448293477E-2,2.515158355E-1,5.906211957E-2
2.047384546E0,-6.265033782E-2,2.814482152E-1,5.722952262E-2
2.049385879E0,-6.020687893E-2,2.936655283E-1,5.417519435E-2
2.051387245E0,-5.959601328E-2,3.162675500E-1,4.867740721E-2
2.053388578E0,-5.715255439E-2,3.327609003E-1,4.256875440E-2
2.055390611E0,-5.837428197E-2,3.345935047E-1,4.379048571E-2
2.057391977E0,-5.715255439E-2,3.504759967E-1,3.035145067E-2
2.059392610E0,-5.715255439E-2,3.516977131E-1,2.790798992E-2
2.061394043E0,-6.326120347E-2,3.529194593E-1,2.118847333E-2
2.063395409E0,-6.936985999E-2,3.492542803E-1,2.251649275E-3
2.065396742E0,-6.998071820E-2,3.535303473E-1,5.305975210E-3
2.067398075E0,-7.547850907E-2,3.468107879E-1,-1.118738670E-2
2.069399441E0,-8.341976255E-2,3.315391839E-1,-2.401555702E-2
2.071400774E0,-8.952841163E-2,3.254305124E-1,-3.195680305E-2
2.073402107E0,-9.075013548E-2,3.101588786E-1,-4.417410865E-2
2.075403473E0,-1.023565829E-1,2.948872745E-1,-5.455881730E-2
2.077404639E0,-1.029674485E-1,2.851133943E-1,-6.311093271E-2
2.079405972E0,-1.127412841E-1,2.637331188E-1,-7.716083527E-2
2.081407338E0,-1.151847541E-1,2.356333286E-1,-9.426505864E-2
2.083408671E0,-1.194608063E-1,2.252486050E-1,-1.028171703E-1
2.085410004E0,-1.328998357E-1,1.977596879E-1,-1.199214011E-1
2.087411370E0,-1.371759027E-1,1.879858375E-1,-1.235865951E-1
2.089412703E0,-1.420628130E-1,1.568317115E-1,-1.339713037E-1
2.093408935E0,-1.579453051E-1,1.183471978E-1,-1.590167731E-1
2.095410201E0,-1.671082973E-1,8.780393749E-2,-1.681797504E-1
2.097411601E0,-1.713843495E-1,6.031500176E-2,-1.816187948E-1
2.099412967E0,-1.750495434E-1,4.626510292E-2,-1.895600408E-1
2.101414300E0,-1.842125207E-1,1.938702911E-2,-1.975012869E-1
2.103415633E0,-1.939863712E-1,-9.323636070E-3,-2.103294581E-1
2.105416966E0,-1.933754981E-1,-2.031921037E-2,-2.121620476E-1
2.107418299E0,-1.994841546E-1,-4.169949517E-2,-2.243793607E-1
2.109419632E0,-2.025384754E-1,-4.902987555E-2,-2.274336815E-1
2.111420965E0,-2.068145424E-1,-6.796669960E-2,-2.335423231E-1
2.113422298E0,-2.123123258E-1,-7.957313955E-2,-2.402618527E-1
2.115422964E0,-2.141449153E-1,-8.751438558E-2,-2.475922406E-1
2.117424297E0,-2.202535719E-1,-9.606649727E-2,-2.494248301E-1
2.119425630E0,-2.245296389E-1,-9.179044515E-2,-2.567552328E-1
2.121426896E0,-2.275839597E-1,-9.484477341E-2,-2.579769492E-1
2.123428229E0,-2.355252057E-1,-9.301217645E-2,-2.653073370E-1
2.125429562E0,-2.410229892E-1,-8.934698254E-2,-2.689725459E-1
2.127430928E0,-2.440773100E-1,-8.323833346E-2,-2.677507997E-1
2.129432261E0,-2.446881831E-1,-6.674497575E-2,-2.708051205E-1
2.131433494E0,-2.514077127E-1,-5.697112530E-2,-2.750811875E-1
2.133434860E0,-2.538511753E-1,-4.780814797E-2,-2.720268667E-1
2.135436193E0,-2.611815631E-1,-3.559084237E-2,-2.787463665E-1
2.137437759E0,-2.617924213E-1,-2.276267298E-2,-2.824115455E-1
2.139439125E0,-2.660684586E-1,-6.269310135E-3,-2.836332619E-1
2.141440458E0,-2.740097046E-1,9.002321400E-3,-2.842441499E-1
2.143441791E0,-2.758423090E-1,1.694356836E-2,-2.842441499E-1
2.145443157E0,-2.850052714E-1,2.916087396E-2,-2.866876125E-1
2.147444490E0,-2.917248011E-1,5.176289007E-2,-2.860767543E-1
2.149449623E0,-2.947791517E-1,5.481721461E-2,-2.891310751E-1
2.151450989E0,-2.972225845E-1,6.764538586E-2,-2.836332619E-1
2.153452322E0,-3.063855469E-1,8.474960923E-2,-2.854658961E-1
2.155453722E0,-3.131051064E-1,8.719307184E-2,-2.879093289E-1
2.157455088E0,-3.198246062E-1,9.513432533E-2,-2.830224335E-1
2.159456421E0,-3.234898150E-1,9.757778049E-2,-2.818006873E-1
2.161457754E0,-3.253223896E-1,1.110168174E-1,-2.750811875E-1
2.163459120E0,-3.289875686E-1,1.152928770E-1,-2.756920457E-1
2.165460286E0,-3.326527774E-1,1.232341230E-1,-2.775246203E-1
2.167461619E0,-3.369288445E-1,1.244558468E-1,-2.750811875E-1
2.169462985E0,-3.363179564E-1,1.372840255E-1,-2.732485533E-1
2.171464318E0,-3.369288445E-1,1.378948838E-1,-2.714159787E-1
2.173465651E0,-3.412048817E-1,1.495013237E-1,-2.677507997E-1
2.175466984E0,-3.448700905E-1,1.598860323E-1,-2.628638744E-1
2.177468317E0,-3.448700905E-1,1.653838158E-1,-2.579769492E-1
2.179469650E0,-3.485352695E-1,1.733250767E-1,-2.555334866E-1
2.181470983E0,-3.534222245E-1,1.806554496E-1,-2.512574196E-1
2.183472316E0,-3.546439111E-1,1.843206435E-1,-2.451487780E-1
2.185473682E0,-3.662503660E-1,1.885967106E-1,-2.402618527E-1
2.187475015E0,-3.668612242E-1,1.904293001E-1,-2.402618527E-1
2.189476348E0,-3.735807538E-1,1.873749644E-1,-2.372075170E-1
2.191477814E0,-3.912958503E-1,1.806554496E-1,-2.298771292E-1
2.193479147E0,-4.016805291E-1,1.757685393E-1,-2.280445546E-1
2.195480480E0,-4.120652378E-1,1.666055620E-1,-2.262119651E-1
2.197481846E0,-4.322238266E-1,1.488904506E-1,-2.262119651E-1
2.199483179E0,-4.426085353E-1,1.458361298E-1,-2.237684876E-1
2.201484512E0,-4.578801692E-1,1.403383464E-1,-2.207141668E-1
2.203485878E0,-4.847581983E-1,1.305644959E-1,-2.249902189E-1
2.205487144E0,-4.920885861E-1,1.311753690E-1,-2.243793607E-1
2.207488477E0,-5.110254288E-1,1.305644959E-1,-2.219358981E-1
2.211487376E0,-5.305731297E-1,1.250667125E-1,-2.188815773E-1
2.213488642E0,-5.519534349E-1,1.317862421E-1,-2.219358981E-1
2.215489942E0,-5.586729050E-1,1.323971003E-1,-2.225467712E-1
2.217491208E0,-5.763880014E-1,1.372840255E-1,-2.237684876E-1
2.219492241E0,-5.941030979E-1,1.464470029E-1,-2.243793607E-1
2.221493541E0,-5.996009111E-1,1.537773907E-1,-2.237684876E-1
2.223494874E0,-6.148725152E-1,1.598860323E-1,-2.304880023E-1
2.225496374E0,-6.307550073E-1,1.745467931E-1,-2.335423231E-1
2.227497407E0,-6.356419921E-1,1.776011288E-1,-2.317097336E-1
2.229498740E0,-6.472483277E-1,1.940944940E-1,-2.298771292E-1
2.231500073E0,-6.564113498E-1,2.014248669E-1,-2.372075170E-1
2.233501906E0,-6.686286330E-1,2.087552547E-1,-2.335423231E-1
2.235503239E0,-6.802350879E-1,2.228051573E-1,-2.396509796E-1
2.237504572E0,-6.845111847E-1,2.234160155E-1,-2.384292632E-1
2.239505938E0,-6.979501843E-1,2.331898659E-1,-2.439270467E-1
2.241507271E0,-7.083349228E-1,2.362441868E-1,-2.475922406E-1
2.243508604E0,-7.144435644E-1,2.435745746E-1,-2.530900240E-1
2.245509937E0,-7.260499597E-1,2.472397685E-1,-2.573660910E-1
2.247511270E0,-7.382673025E-1,2.472397685E-1,-2.598095536E-1
2.249512603E0,-7.449868321E-1,2.490723580E-1,-2.585878074E-1
2.251513936E0,-7.553715110E-1,2.411311120E-1,-2.653073370E-1
2.253515269E0,-7.675887942E-1,2.344115973E-1,-2.732485533E-1
2.255516635E0,-7.706431746E-1,2.301355451E-1,-2.738594413E-1
2.257517768E0,-7.834712863E-1,2.111987174E-1,-2.824115455E-1
2.259519101E0,-7.859147787E-1,2.105878443E-1,-2.818006873E-1
2.261520401E0,-7.987430096E-1,1.879858375E-1,-2.854658961E-1
2.263521734E0,-8.085168004E-1,1.757685393E-1,-2.903528214E-1
2.265523134E0,-8.085168004E-1,1.586643010E-1,-2.897419333E-1
2.267524434E0,-8.219558001E-1,1.336188316E-1,-2.989048958E-1
2.269525767E0,-8.335622549E-1,1.000212431E-1,-3.019592166E-1
2.271527000E0,-8.347839713E-1,8.963653445E-2,-3.001266420E-1
2.273528433E0,-8.470013142E-1,5.726067722E-2,-3.086787760E-1
2.275529833E0,-8.573860526E-1,1.877616532E-2,-3.123439550E-1
2.277531233E0,-8.616620898E-1,-4.436714109E-3,-3.123439550E-1
2.279533833E0,-8.659381270E-1,-4.719728231E-2,-3.196743429E-1
2.281535233E0,-8.726576567E-1,-6.185804680E-2,-3.251721263E-1
2.283536566E0,-8.805989027E-1,-1.107272655E-1,-3.257829845E-1
2.285537932E0,-8.824315071E-1,-1.559312940E-1,-3.318916261E-1
2.287539598E0,-8.879292607E-1,-1.785333157E-1,-3.318916261E-1
2.289540931E0,-8.995357156E-1,-2.274025232E-1,-3.386111557E-1
2.291542297E0,-9.062552452E-1,-2.799369395E-1,-3.386111557E-1
2.293543163E0,-9.074769616E-1,-3.013172448E-1,-3.434980810E-1
2.295544496E0,-9.074769616E-1,-3.544625044E-1,-3.477741480E-1
2.297545796E0,-9.141964912E-1,-4.039425850E-1,-3.441089392E-1
2.299547129E0,-9.154182076E-1,-4.228793979E-1,-3.447198272E-1
2.301548462E0,-9.160290956E-1,-4.686942995E-1,-3.447198272E-1
2.303549928E0,-9.166399240E-1,-5.120657086E-1,-3.434980810E-1
2.305551261E0,-9.154182076E-1,-5.291699767E-1,-3.416655064E-1
2.307552594E0,-9.203051329E-1,-5.646001697E-1,-3.447198272E-1
2.309553960E0,-9.160290956E-1,-5.786499977E-1,-3.428871930E-1
2.311555293E0,-9.135856032E-1,-6.055281162E-1,-3.453306854E-1
2.313556626E0,-9.093095660E-1,-6.244649887E-1,-3.367785513E-1
2.315557959E0,-9.111421704E-1,-6.324061751E-1,-3.380002975E-1
2.317559492E0,-9.105312824E-1,-6.391257048E-1,-3.373894393E-1
2.319560825E0,-9.044226408E-1,-6.385148168E-1,-3.306699097E-1
2.321562225E0,-8.983139396E-1,-6.342387795E-1,-3.318916261E-1
2.323563558E0,-8.922052979E-1,-6.146910787E-1,-3.276155591E-1
2.325565624E0,-8.812097907E-1,-5.951434374E-1,-3.257829845E-1
2.327567024E0,-8.818206191E-1,-5.749848485E-1,-3.245612383E-1
2.329568357E0,-8.732684851E-1,-5.358894467E-1,-3.221178055E-1
2.331574523E0,-8.665490150E-1,-4.870202541E-1,-3.227286637E-1
2.333575856E0,-8.573860526E-1,-4.662508667E-1,-3.172308803E-1
2.335577189E0,-8.476122022E-1,-4.014991224E-1,-3.221178055E-1
2.337578555E0,-8.384492397E-1,-3.709558845E-1,-3.221178055E-1
2.339578955E0,-8.274536133E-1,-3.025389314E-1,-3.129548132E-1
2.341580288E0,-8.182906508E-1,-2.243482023E-1,-3.160091639E-1
2.343581654E0,-8.103494048E-1,-1.889180094E-1,-3.178417385E-1
2.345582987E0,-7.914125919E-1,-1.174467877E-1,-3.215069175E-1
2.347584320E0,-7.822495699E-1,-3.925603628E-2,-3.184525967E-1
2.349585686E0,-7.791952491E-1,-5.658444948E-3,-3.227286637E-1
2.351586819E0,-7.639236450E-1,6.336932629E-2,-3.239503801E-1
2.353588152E0,-7.578150034E-1,9.513432533E-2,-3.276155591E-1
2.355589518E0,-7.443760037E-1,1.598860323E-1,-3.276155591E-1
2.357590918E0,-7.315477729E-1,2.087552547E-1,-3.288373053E-1
2.359592251E0,-7.254391313E-1,2.380767763E-1,-3.349459469E-1
2.361593617E0,-7.120001316E-1,2.765613198E-1,-3.355568349E-1
2.363594783E0,-6.991719604E-1,3.083263040E-1,-3.465524018E-1
2.365596249E0,-6.961176395E-1,3.168784082E-1,-3.410546184E-1
2.367597615E0,-6.777916551E-1,3.394804001E-1,-3.532719016E-1
2.369598948E0,-6.667960882E-1,3.480325341E-1,-3.593805730E-1
2.371600281E0,-6.643525958E-1,3.565846682E-1,-3.673218489E-1
2.373601647E0,-6.521353126E-1,3.504759967E-1,-3.697652817E-1
2.375602980E0,-6.380853653E-1,3.394804001E-1,-3.807608783E-1
2.377604313E0,-6.295332909E-1,3.400912881E-1,-3.819825947E-1
2.379605679E0,-6.191485524E-1,3.248196542E-1,-3.911455572E-1
2.381608145E0,-6.130399108E-1,3.211544454E-1,-3.948107660E-1
2.383609478E0,-6.032660604E-1,3.107697368E-1,-4.045845866E-1
2.385610111E0,-5.837183595E-1,2.985524535E-1,-4.125258625E-1
2.387611444E0,-5.763880014E-1,2.942763865E-1,-4.143584669E-1
2.389612777E0,-5.684467554E-1,2.790047526E-1,-4.241322875E-1
2.393610743E0,-5.458447337E-1,2.716743648E-1,-4.314626753E-1
2.395612076E0,-5.458447337E-1,2.619005442E-1,-4.400148094E-1
2.397613409E0,-5.360709429E-1,2.582353652E-1,-4.418473840E-1
2.399614742E0,-5.317948461E-1,2.533484101E-1,-4.467343092E-1
2.401615775E0,-5.238536000E-1,2.509049475E-1,-4.436799884E-1
2.403617108E0,-5.244644880E-1,2.447963059E-1,-4.442908466E-1
2.405618441E0,-5.244644880E-1,2.356333286E-1,-4.503995180E-1
2.407619807E0,-5.281296372E-1,2.203616947E-1,-4.418473840E-1
2.409621140E0,-5.269079208E-1,2.154747844E-1,-4.394039214E-1
2.411622673E0,-5.238536000E-1,1.922619045E-1,-4.369604588E-1
2.413624039E0,-5.317948461E-1,1.757685393E-1,-4.277974963E-1
2.415625372E0,-5.317948461E-1,1.598860323E-1,-4.247431755E-1
2.417626705E0,-5.305731297E-1,1.342296898E-1,-4.094715416E-1
2.419628071E0,-5.354599953E-1,1.091842204E-1,-3.984759450E-1
2.421633337E0,-5.360709429E-1,9.452345222E-2,-3.911455572E-1
2.423634737E0,-5.379034877E-1,7.253230363E-2,-3.752630651E-1
2.425636237E0,-5.324056745E-1,4.321077466E-2,-3.581588566E-1
2.427637570E0,-5.336274505E-1,2.793914452E-2,-3.471632600E-1
2.429638903E0,-5.269079208E-1,-2.604118548E-3,-3.355568349E-1
2.431640269E0,-5.269079208E-1,-1.909748092E-2,-3.215069175E-1
2.433641602E0,-5.165231824E-1,-4.597555101E-2,-2.976832092E-1
2.435642902E0,-5.091928244E-1,-7.651881129E-2,-2.787463665E-1
2.437644268E0,-5.043058991E-1,-9.362304211E-2,-2.714159787E-1
2.439645601E0,-4.890342653E-1,-1.290532202E-1,-2.494248301E-1
2.441645801E0,-4.707083106E-1,-1.632616669E-1,-2.396509796E-1
2.443647167E0,-4.627670944E-1,-1.779224426E-1,-2.329314798E-1
2.445648500E0,-4.395541847E-1,-2.206830084E-1,-2.146055102E-1
2.447649833E0,-4.132869840E-1,-2.469502091E-1,-2.048316598E-1
2.449651899E0,-3.998479545E-1,-2.622218728E-1,-1.987230182E-1
2.451653232E0,-3.723590076E-1,-2.927651107E-1,-1.975012869E-1
2.453654565E0,-3.607525826E-1,-3.055932820E-1,-1.877274513E-1
2.455656631E0,-3.302093148E-1,-3.294170201E-1,-1.858948469E-1
2.457657964E0,-3.021095395E-1,-3.532407880E-1,-1.865057051E-1
2.459659297E0,-2.874487638E-1,-3.624037504E-1,-1.865057051E-1
2.461660963E0,-2.556837499E-1,-3.837840259E-1,-1.907817721E-1
2.463662296E0,-2.269730866E-1,-4.039425850E-1,-1.938360929E-1
2.465663629E0,-2.135340571E-1,-4.143272936E-1,-1.968904287E-1
2.467664962E0,-1.811581999E-1,-4.271554649E-1,-2.097185999E-1
2.469666295E0,-1.530583948E-1,-4.418162107E-1,-2.262119651E-1
2.471667661E0,-1.408410966E-1,-4.522009194E-1,-2.372075170E-1
2.473668927E0,-1.212934032E-1,-4.540335536E-1,-2.591986656E-1
2.475670260E0,-1.078543738E-1,-4.723595083E-1,-2.701942325E-1
2.477671626E0,-8.586321771E-2,-4.723595083E-1,-2.921853960E-1
2.479672959E0,-6.936985999E-2,-4.815224707E-1,-3.245612383E-1
2.483671725E0,-4.860043898E-2,-4.937397838E-1,-3.642674983E-1
2.485672791E0,-4.188092053E-2,-4.974049628E-1,-3.905346990E-1
2.487674124E0,-3.638313338E-2,-4.992375374E-1,-4.015302658E-1
2.489675157E0,-2.416582778E-2,-4.992375374E-1,-4.247431755E-1
2.491676490E0,-2.111150324E-2,-5.010701418E-1,-4.522320926E-1
2.493677823E0,-1.317025442E-2,-4.986267090E-1,-4.613950849E-1
2.495679223E0,-1.317025442E-2,-4.864093959E-1,-4.846079350E-1
2.497680556E0,-1.011592895E-2,-4.674725533E-1,-4.986578226E-1
2.499681889E0,-1.194852404E-2,-4.534226656E-1,-5.078208447E-1
2.501683255E0,-5.839871708E-3,-4.308206439E-1,-5.175946951E-1
2.503684588E0,-5.229006521E-3,-4.167707562E-1,-5.230924487E-1
2.505685921E0,-5.229006521E-3,-3.813405633E-1,-5.334771872E-1
2.507687287E0,-7.672467735E-3,-3.446886539E-1,-5.420293212E-1
2.509688853E0,-8.283332922E-3,-3.220866323E-1,-5.432510376E-1
2.511690186E0,-1.133765932E-2,-2.866564691E-1,-5.426401496E-1
2.513691552E0,-1.622457989E-2,-2.457284778E-1,-5.432510376E-1
2.515692185E0,-2.172236890E-2,-2.267916501E-1,-5.401967168E-1
2.517693518E0,-2.905275114E-2,-1.968592703E-1,-5.334771872E-1
2.519694884E0,-2.844188549E-2,-1.559312940E-1,-5.230924487E-1
2.521696217E0,-3.271793947E-2,-1.363836080E-1,-5.157620907E-1
2.523697550E0,-3.699399903E-2,-1.015642881E-1,-5.053773522E-1
2.525698916E0,-3.882659599E-2,-8.018400520E-2,-4.956035018E-1
2.527700249E0,-4.615698010E-2,-5.086247250E-2,-4.778884351E-1
2.529701249E0,-5.348736048E-2,-3.825849155E-3,-4.632276595E-1
2.531702582E0,-5.776341632E-2,9.613187052E-3,-4.449017048E-1
2.533704682E0,-6.020687893E-2,4.382164031E-2,-4.241322875E-1
2.535706015E0,-6.448293477E-2,8.352787793E-2,-4.039737284E-1
2.537707348E0,-6.570466608E-2,1.036864296E-1,-3.893129528E-1
2.539708681E0,-6.509380043E-2,1.323971003E-1,-3.606022894E-1
2.541709681E0,-6.936985999E-2,1.635512263E-1,-3.325025141E-1
2.543711014E0,-6.814812124E-2,1.800445914E-1,-3.160091639E-1
2.545712347E0,-6.692639738E-2,2.050900608E-1,-2.927962542E-1
2.547713713E0,-6.936985999E-2,2.319681346E-1,-2.585878074E-1
2.549715379E0,-7.303504646E-2,2.472397685E-1,-2.439270467E-1
2.551716445E0,-6.570466608E-2,2.655657232E-1,-2.176598310E-1
2.553717811E0,-6.692639738E-2,2.741178274E-1,-2.072751373E-1
2.555719144E0,-5.959601328E-2,2.875568867E-1,-1.791753173E-1
2.557720477E0,-5.287649482E-2,3.052719831E-1,-1.584059149E-1
2.559721843E0,-4.737870768E-2,3.101588786E-1,-1.455777436E-1
2.561723176E0,-4.004832357E-2,3.217653334E-1,-1.272517890E-1
2.563724509E0,-2.294410020E-2,3.303174376E-1,-1.064823642E-1
2.565725875E0,-1.805717684E-2,3.242087960E-1,-9.059987217E-2
2.567727208E0,-7.061602082E-3,3.156566918E-1,-7.960429043E-2
2.569727608E0,8.210028522E-3,3.022176623E-1,-6.311093271E-2
2.571728974E0,1.859473810E-2,2.954981029E-1,-5.639141425E-2
2.573730307E0,3.020117804E-2,2.686200440E-1,-4.722843692E-2
2.575731640E0,3.875329345E-2,2.545701563E-1,-4.173064977E-2
2.577733006E0,5.585751683E-2,2.264703512E-1,-3.928718716E-2
2.579734339E0,6.990741938E-2,2.002031356E-1,-3.440026566E-2
2.581735339E0,7.907039672E-2,1.830989271E-1,-3.195680305E-2
2.583736705E0,9.006597102E-2,1.556099802E-1,-3.317853436E-2
2.585738038E0,9.861809015E-2,1.281210482E-1,-3.256766871E-2
2.587739371E0,9.861809015E-2,1.116276830E-1,-3.562199324E-2
2.589741071E0,1.028941423E-1,8.780393749E-2,-4.539583996E-2
2.591742404E0,1.071701944E-1,5.909327045E-2,-5.700227991E-2
2.593743037E0,1.071701944E-1,4.504336789E-2,-6.250006706E-2
2.595744403E0,1.047267392E-1,2.671741322E-2,-6.738698483E-2
2.597745403E0,1.010615453E-1,2.282803645E-3,-7.777170092E-2
2.599746736E0,1.077810675E-1,-1.359969284E-2,-9.915198386E-2
2.601748436E0,1.016724110E-1,-3.742343932E-2,-1.113692820E-1
2.603749769E0,9.800721705E-2,-5.452766269E-2,-1.223648638E-1
2.605751102E0,9.373116493E-2,-7.285362482E-2,-1.406908184E-1
2.607752435E0,9.250943363E-2,-9.179044515E-2,-1.565733254E-1
2.609753768E0,8.517904580E-2,-1.027860194E-1,-1.663471460E-1
2.611755401E0,7.662694156E-2,-1.168359220E-1,-1.828405112E-1
2.613756734E0,7.601606846E-2,-1.229445711E-1,-1.975012869E-1
2.615758067E0,7.051828504E-2,-1.241663024E-1,-2.023882121E-1
2.617759433E0,5.830097944E-2,-1.308858246E-1,-2.152163833E-1
2.619760766E0,4.974886775E-2,-1.376053244E-1,-2.298771292E-1
2.621762099E0,4.241848364E-2,-1.321075410E-1,-2.298771292E-1
2.623763132E0,3.203377500E-2,-1.247771680E-1,-2.384292632E-1
2.625764465E0,2.592512220E-2,-1.205011159E-1,-2.451487780E-1
2.627765798E0,1.126435492E-2,-1.150033250E-1,-2.427053005E-1
2.629767164E0,-9.529497474E-4,-1.088946685E-1,-2.402618527E-1
2.631768430E0,-7.061602082E-3,-1.009534225E-1,-2.384292632E-1
2.633769763E0,-2.233323269E-2,-9.056871384E-2,-2.323206067E-1
2.635771129E0,-3.027448058E-2,-7.346448302E-2,-2.231576294E-1
2.637772462E0,-3.393967450E-2,-6.979929656E-2,-2.225467712E-1
2.639773795E0,-4.615698010E-2,-4.475382343E-2,-2.133837938E-1
2.641775495E0,-5.715255439E-2,-2.520613372E-2,-1.981121451E-1
2.643776828E0,-6.081774458E-2,-1.665401831E-2,-1.938360929E-1
2.645778161E0,-6.326120347E-2,2.893668599E-3,-1.846731156E-1
2.647779527E0,-6.631553173E-2,1.327837724E-2,-1.791753173E-1
2.649780860E0,-7.059159130E-2,3.465865925E-2,-1.632928252E-1
2.651782193E0,-7.120245695E-2,5.359548703E-2,-1.529081315E-1
2.653783559E0,-7.425678521E-2,6.092586368E-2,-1.486320645E-1
2.655784892E0,-6.936985999E-2,8.841480315E-2,-1.333604306E-1
2.657786558E0,-7.120245695E-2,1.097950861E-1,-1.211431250E-1
2.659787924E0,-6.631553173E-2,1.207906678E-1,-1.119801477E-1
2.661789257E0,-6.326120347E-2,1.488904506E-1,-9.976284951E-2
2.663791290E0,-6.387206912E-2,1.690490097E-1,-8.998900652E-2
2.665792656E0,-5.837428197E-2,1.794337332E-1,-8.510208130E-2
2.667793989E0,-5.348736048E-2,2.044792026E-1,-6.983045489E-2
2.669795322E0,-4.554611072E-2,2.276920825E-1,-5.578054860E-2
2.671797688E0,-4.065919295E-2,2.423528433E-1,-5.333708972E-2
2.673799021E0,-3.332880884E-2,2.631222606E-1,-4.967189953E-2
2.675800354E0,-2.966361679E-2,2.863351405E-1,-4.845016450E-2
2.677801687E0,-2.660928853E-2,2.979415953E-1,-3.806545585E-2
2.679802953E0,-1.622457989E-2,3.187110126E-1,-2.951334417E-2
2.681805419E0,-1.378112007E-2,3.235979378E-1,-2.951334417E-2
2.683807085E0,-9.505063295E-3,3.474216759E-1,-2.218296006E-2
2.685808751E0,-3.396410728E-3,3.633041680E-1,-1.973949932E-2
2.687810117E0,-2.174680121E-3,3.706345558E-1,-1.790690422E-2
2.689811450E0,8.210028522E-3,3.871279061E-1,-1.485257689E-2
2.691812850E0,1.370781567E-2,3.962908983E-1,-1.668517292E-2
2.693814216E0,1.554041170E-2,3.981234729E-1,-1.546344254E-2
2.695815549E0,1.920560189E-2,4.115625322E-1,-1.363084652E-2
2.697816882E0,2.042733319E-2,4.146168530E-1,-1.363084652E-2
2.699818248E0,2.592512220E-2,4.213363528E-1,-6.300464272E-3
2.701819581E0,2.653598599E-2,4.311102033E-1,-1.179825142E-2
2.703820914E0,2.348166145E-2,4.298884869E-1,-1.118738670E-2
2.705822280E0,3.569896147E-2,4.304993153E-1,-1.118738670E-2
2.707823613E0,4.058588669E-2,4.359971285E-1,-1.179825142E-2
2.709824946E0,4.425108060E-2,4.335536659E-1,-1.607430913E-2
2.711826312E0,4.180761799E-2,4.311102033E-1,-1.485257689E-2
2.713827645E0,4.791627079E-2,4.311102033E-1,-1.179825142E-2
2.715828978E0,4.913800210E-2,4.250015616E-1,-1.179825142E-2
2.717830344E0,6.074443832E-2,4.207254946E-1,-1.363084652E-2
2.719831677E0,6.379877031E-2,4.109516740E-1,-9.965655394E-3
2.721832710E0,6.379877031E-2,4.036212862E-1,-8.133059368E-3
2.723833310E0,7.174001634E-2,3.871279061E-1,-9.354790673E-3
2.725834643E0,6.929655373E-2,3.779649436E-1,-5.689599086E-3
2.727837076E0,7.235087454E-2,3.608606756E-1,-9.354790673E-3
2.729838442E0,8.151385188E-2,3.339826465E-1,-9.965655394E-3
2.731838742E0,8.517904580E-2,3.181001246E-1,-1.179825142E-2
2.733840075E0,9.312029928E-2,2.954981029E-1,-5.078733433E-3
2.735841441E0,9.983981401E-2,2.673983276E-1,-2.635272685E-3
2.737842774E0,1.090027913E-1,2.521266937E-1,4.190535401E-4
2.739844174E0,1.071701944E-1,2.166965008E-1,1.640783972E-3
2.741844407E0,1.145005822E-1,1.830989271E-1,4.084245302E-3
2.743845740E0,1.181657687E-1,1.672164202E-1,3.473379882E-3
2.745846740E0,1.187766418E-1,1.305644959E-1,1.080376282E-2
2.747848073E0,1.273287535E-1,1.134602800E-1,1.019289810E-2
2.749849539E0,1.334374100E-1,6.703452021E-2,1.385808829E-2
2.751850572E0,1.413786411E-1,3.343693167E-2,1.263635792E-2
2.753851905E0,1.462655813E-1,1.388924289E-2,1.935587637E-2
2.755853238E0,1.523742229E-1,-2.887132391E-2,2.363193408E-2
2.757854604E0,1.572611481E-1,-6.735583395E-2,2.302106842E-2
2.759855937E0,1.572611481E-1,-9.117957950E-2,3.157318011E-2
2.761857270E0,1.731436402E-1,-1.308858246E-1,3.401664272E-2
2.763858636E0,1.737545133E-1,-1.724246591E-1,4.195788875E-2
2.765859969E0,1.755871177E-1,-1.883071661E-1,4.806654528E-2
2.767861302E0,1.847500950E-1,-2.353437841E-1,5.539692566E-2
2.769862668E0,1.865826845E-1,-2.744391561E-1,6.211644411E-2
2.771864001E0,1.926913261E-1,-3.000954986E-1,7.189028710E-2
2.773865334E0,1.957456619E-1,-3.294170201E-1,8.166413009E-2
2.775866700E0,2.018543035E-1,-3.514081836E-1,8.777277917E-2
2.777868033E0,2.097955644E-1,-3.868383467E-1,9.693576396E-2
2.779869366E0,2.134607583E-1,-4.210468233E-1,1.091530696E-1
2.781873532E0,2.165150791E-1,-4.363184571E-1,1.195377707E-1
2.783874932E0,2.140716165E-1,-4.576987326E-1,1.311442107E-1
2.785876265E0,2.201802731E-1,-4.870202541E-1,1.458049715E-1
2.787876531E0,2.201802731E-1,-4.980158508E-1,1.543571055E-1
2.789877864E0,2.232345939E-1,-5.145092010E-1,1.696287245E-1
2.791879197E0,2.250671834E-1,-5.310025811E-1,1.867329627E-1
2.793880563E0,2.281215191E-1,-5.383329391E-1,1.977285296E-1
2.795881896E0,2.330084443E-1,-5.511611104E-1,2.123892903E-1
2.797883229E0,2.336193025E-1,-5.554372072E-1,2.215522826E-1
2.799884595E0,2.391171008E-1,-5.554372072E-1,2.362130433E-1
2.801885928E0,2.433931381E-1,-5.584915280E-1,2.527064085E-1
2.803887261E0,2.470583320E-1,-5.536045432E-1,2.569824457E-1
2.805888627E0,2.525561154E-1,-5.517719984E-1,2.740866840E-1
2.807889960E0,2.519452572E-1,-5.383329391E-1,2.814170420E-1
2.809891160E0,2.556104660E-1,-5.322242975E-1,2.911909223E-1
2.811899393E0,2.653843164E-1,-5.175635219E-1,3.003538847E-1
2.813900659E0,2.684386373E-1,-4.925180376E-1,3.125711977E-1
2.815901959E0,2.739363909E-1,-4.882419705E-1,3.137929440E-1
2.817903225E0,2.776015997E-1,-4.564769864E-1,3.278428316E-1
2.819904491E0,2.782124579E-1,-4.448705316E-1,3.241776526E-1
2.821905791E0,2.812667787E-1,-4.179925025E-1,3.296754062E-1
2.823907057E0,2.885971665E-1,-3.868383467E-1,3.308971524E-1
2.825908323E0,2.934840918E-1,-3.703449965E-1,3.351732194E-1
2.827909356E0,2.995927334E-1,-3.373582661E-1,3.376166821E-1
2.829910622E0,3.008144796E-1,-3.062041402E-1,3.351732194E-1
2.831911888E0,3.032579422E-1,-2.933759689E-1,3.327297270E-1
2.833913188E0,3.154752553E-1,-2.573349178E-1,3.253993392E-1
2.835914454E0,3.215838969E-1,-2.261808068E-1,3.241776526E-1
2.837915720E0,3.289142847E-1,-2.121309042E-1,3.217341602E-1
2.839917020E0,3.411315978E-1,-1.797550321E-1,3.162363768E-1
2.843917186E0,3.625118732E-1,-1.357727349E-1,2.966886759E-1
2.845922519E0,3.783943653E-1,-1.088946685E-1,2.869148552E-1
2.847923852E0,3.863356113E-1,-9.973169118E-2,2.826387882E-1
2.849925185E0,4.077159166E-1,-8.323833346E-2,2.698106468E-1
2.851926551E0,4.193223119E-1,-6.796669960E-2,2.563715875E-1
2.853927817E0,4.284853339E-1,-7.041016221E-2,2.502629459E-1
2.855929150E0,4.480330348E-1,-6.124718115E-2,2.331587076E-1
2.857930516E0,4.639154971E-1,-6.979929656E-2,2.197196782E-1
2.859931849E0,4.718567431E-1,-7.285362482E-2,2.117784321E-1
2.861933182E0,4.828523397E-1,-8.812525123E-2,1.946741939E-1
2.863934548E0,4.962913394E-1,-1.070620716E-1,1.745156497E-1
2.865935948E0,4.993456602E-1,-1.235554367E-1,1.677961200E-1
2.867937014E0,5.060651898E-1,-1.559312940E-1,1.439723819E-1
2.869938380E0,5.036217570E-1,-1.693703234E-1,1.378637403E-1
2.873935112E0,5.237802863E-1,-2.280133963E-1,1.115965247E-1
2.875936512E0,5.231694579E-1,-2.426741570E-1,1.060987413E-1
2.877937912E0,5.311106443E-1,-2.756609023E-1,9.265970439E-2
2.879939045E0,5.390519500E-1,-2.994846106E-1,8.349672705E-2
2.881940445E0,5.476040840E-1,-3.135345280E-1,7.738807797E-2
2.883941845E0,5.604321957E-1,-3.324713409E-1,6.639250368E-2
2.885943245E0,5.714278221E-1,-3.459104002E-1,5.906211957E-2
2.887944911E0,5.836451054E-1,-3.569059670E-1,6.211644411E-2
2.889946311E0,5.940297842E-1,-3.685123920E-1,5.173173547E-2
2.891947744E0,6.050254107E-1,-3.740102053E-1,5.478606001E-2
2.893949144E0,6.172426939E-1,-3.795079589E-1,5.417519435E-2
2.895950544E0,6.306816936E-1,-3.746210635E-1,5.112086982E-2
2.897951977E0,6.410664320E-1,-3.740102053E-1,4.806654528E-2
2.899953377E0,6.508402824E-1,-3.611820042E-1,5.295346305E-2
2.901954710E0,6.691662073E-1,-3.507972956E-1,6.150557846E-2
2.903956076E0,6.771074533E-1,-3.471321166E-1,5.967298150E-2
2.907954775E0,7.052072883E-1,-3.117019236E-1,7.066855580E-2
2.909956141E0,7.143702507E-1,-3.055932820E-1,7.372288406E-2
2.911957474E0,7.278092504E-1,-2.878781855E-1,8.594018221E-2
2.913958874E0,7.443026900E-1,-2.719956934E-1,9.265970439E-2
2.915960240E0,7.479678392E-1,-2.573349178E-1,9.327057004E-2
2.917961573E0,7.601851225E-1,-2.438958883E-1,1.030444205E-1
2.919963606E0,7.626286149E-1,-2.390089780E-1,1.073204726E-1
2.921964739E0,7.754567862E-1,-2.298459858E-1,1.195377707E-1
2.923966072E0,7.833980322E-1,-2.237373292E-1,1.232029647E-1
2.925967038E0,7.833980322E-1,-2.151852250E-1,1.323659569E-1
2.927968671E0,7.919501066E-1,-2.096874416E-1,1.427506506E-1
2.929970004E0,7.992805243E-1,-2.115200311E-1,1.494701654E-1
2.931971337E0,8.041673899E-1,-2.078548372E-1,1.513027698E-1
2.933972137E0,8.108869791E-1,-2.084657103E-1,1.665744036E-1
2.935973403E0,8.188281655E-1,-2.066331208E-1,1.751265079E-1
2.937974736E0,8.200499415E-1,-1.993027329E-1,1.769591123E-1
2.939976936E0,8.218824863E-1,-1.968592703E-1,1.849003583E-1
2.941978269E0,8.206608295E-1,-1.980809867E-1,1.934524626E-1
2.943979602E0,8.231042624E-1,-1.864745617E-1,2.038371712E-1
2.945980968E0,8.243259788E-1,-1.828093678E-1,2.117784321E-1
2.947982301E0,8.200499415E-1,-1.791441739E-1,2.160544842E-1
2.949983301E0,8.237151504E-1,-1.644834131E-1,2.282717824E-1
2.951984634E0,8.200499415E-1,-1.522661000E-1,2.325478494E-1
2.953985967E0,8.200499415E-1,-1.431031227E-1,2.386564910E-1
2.955987300E0,8.200499415E-1,-1.339401454E-1,2.484303415E-1
2.957988633E0,8.151630163E-1,-1.125598624E-1,2.600367665E-1
2.959989899E0,8.194391131E-1,-1.070620716E-1,2.600367665E-1
2.961991265E0,8.127195239E-1,-8.262746781E-2,2.716432214E-1
2.963992565E0,8.108869791E-1,-6.857756525E-2,2.814170420E-1
2.965993898E0,8.145521283E-1,-5.880372226E-2,2.820279300E-1
2.967995264E0,8.151630163E-1,-3.681257367E-2,2.893583179E-1
2.969996597E0,8.139412999E-1,-2.398440242E-2,2.893583179E-1
2.971997930E0,8.096652031E-1,-3.825849155E-3,2.997429967E-1
2.973999296E0,8.127195239E-1,1.083491743E-2,3.027973771E-1
2.976000629E0,8.139412999E-1,1.816529967E-2,3.058516979E-1
2.978001962E0,8.108869791E-1,3.832385316E-2,3.107385933E-1
2.980002628E0,8.096652031E-1,6.031500176E-2,3.156255186E-1
2.982004194E0,8.127195239E-1,6.581278890E-2,3.174581230E-1
2.984005527E0,8.133304715E-1,8.719307184E-2,3.211233318E-1
2.986007193E0,8.121086955E-1,1.036864296E-1,3.229559064E-1
2.988008459E0,8.169956207E-1,1.165146008E-1,3.253993392E-1
2.990009792E0,8.163847923E-1,1.275101751E-1,3.266210854E-1
2.992011158E0,8.145521283E-1,1.427818090E-1,3.253993392E-1
2.994012491E0,8.182173371E-1,1.580534428E-1,3.266210854E-1
2.996013891E0,8.188281655E-1,1.800445914E-1,3.296754062E-1
2.998015257E0,8.194391131E-1,1.904293001E-1,3.308971524E-1
3.000016023E0,8.194391131E-1,2.063117921E-1,3.357840776E-1
3.002017356E0,8.249368668E-1,2.234160155E-1,3.308971524E-1
3.004018722E0,8.231042624E-1,2.338007390E-1,3.308971524E-1
3.006020055E0,8.237151504E-1,2.490723580E-1,3.327297270E-1
3.008021388E0,8.279911876E-1,2.649548650E-1,3.315080404E-1
3.010023088E0,8.292129040E-1,2.728961110E-1,3.290645480E-1
3.012024421E0,8.279911876E-1,2.838917077E-1,3.278428316E-1
3.014025754E0,8.304346204E-1,2.930546701E-1,3.296754062E-1
3.016027120E0,8.334889412E-1,2.948872745E-1,3.266210854E-1
3.018028453E0,8.353216052E-1,2.985524535E-1,3.217341602E-1
3.020030553E0,8.389867544E-1,3.064936697E-1,3.217341602E-1
3.025365723E0,8.365432620E-1,3.071045578E-1,3.174581230E-1
3.027367089E0,8.414302468E-1,3.058828413E-1,3.156255186E-1
3.029368422E0,8.402084708E-1,3.009959161E-1,3.162363768E-1
3.031369755E0,8.432627916E-1,2.912220657E-1,3.150146604E-1
3.033371088E0,8.457062840E-1,2.704526484E-1,3.156255186E-1
3.035372421E0,8.420410752E-1,2.673983276E-1,3.137929440E-1
3.037373754E0,8.432627916E-1,2.454071641E-1,3.052408099E-1
3.039375087E0,8.432627916E-1,2.215834260E-1,3.076842725E-1
3.041376453E0,8.414302468E-1,2.087552547E-1,3.082951307E-1
3.043377786E0,8.450953960E-1,1.769902706E-1,3.052408099E-1
3.045379152E0,8.463171124E-1,1.598860323E-1,3.040190637E-1
3.047380518E0,8.463171124E-1,1.244558468E-1,3.009647429E-1
3.049381851E0,8.432627916E-1,9.757778049E-2,2.997429967E-1
3.051383251E0,8.475388885E-1,8.230615407E-2,2.979104221E-1
3.053384617E0,8.444845676E-1,4.137817770E-2,3.027973771E-1
3.055385950E0,8.469280601E-1,1.022405177E-2,2.979104221E-1
3.057387283E0,8.420410752E-1,-1.543228887E-2,2.979104221E-1
3.059388649E0,8.395976424E-1,-5.208420008E-2,2.960778177E-1
3.061389982E0,8.359324336E-1,-7.774055004E-2,2.991321683E-1
3.063391315E0,8.328781128E-1,-9.056871384E-2,2.991321683E-1
3.065392681E0,8.292129040E-1,-1.259988993E-1,2.930234969E-1
3.067394014E0,8.267694712E-1,-1.473791748E-1,2.918017805E-1
3.069395347E0,8.212716579E-1,-1.638725400E-1,2.985213101E-1
3.071396713E0,8.169956207E-1,-1.846419722E-1,2.954669893E-1
3.073398046E0,8.157738447E-1,-1.858636886E-1,3.015756309E-1
3.075399379E0,8.072217703E-1,-2.011353374E-1,2.997429967E-1
3.077400745E0,7.968370318E-1,-2.084657103E-1,2.997429967E-1
3.079402078E0,7.992805243E-1,-2.109091580E-1,2.979104221E-1
3.081403411E0,7.943935990E-1,-2.096874416E-1,2.972995639E-1
3.083404077E0,7.858414650E-1,-2.060222477E-1,2.960778177E-1
3.085405710E0,7.803437114E-1,-1.986918598E-1,2.954669893E-1
3.087407043E0,7.724024653E-1,-1.907506138E-1,2.930234969E-1
3.089408409E0,7.711807489E-1,-1.773115844E-1,2.985213101E-1
3.091409742E0,7.687372565E-1,-1.687594652E-1,2.991321683E-1
3.093410742E0,7.675154805E-1,-1.486009061E-1,2.979104221E-1
3.095412108E0,7.656829357E-1,-1.394379288E-1,2.979104221E-1
3.097413441E0,7.650721073E-1,-1.162250489E-1,2.997429967E-1
3.099414774E0,7.632395029E-1,-9.056871384E-2,3.034082055E-1
3.101416107E0,7.589634657E-1,-7.407535613E-2,3.027973771E-1
3.103418140E0,7.595742941E-1,-4.964074492E-2,3.009647429E-1
3.105419140E0,7.614068389E-1,-1.054536644E-2,3.058516979E-1
3.107420473E0,7.589634657E-1,5.337129813E-3,3.058516979E-1
3.109421806E0,7.595742941E-1,4.321077466E-2,3.052408099E-1
3.111422806E0,7.620177865E-1,8.474960923E-2,3.076842725E-1
3.113424139E0,7.620177865E-1,1.049081683E-1,3.089060187E-1
3.115425472E0,7.626286149E-1,1.440035403E-1,3.095168769E-1
3.117426838E0,7.675154805E-1,1.635512263E-1,3.107385933E-1
3.119428171E0,7.699589729E-1,2.020357400E-1,3.064625561E-1
3.121429504E0,7.748458982E-1,2.331898659E-1,3.052408099E-1
3.123430870E0,7.803437114E-1,2.484614998E-1,3.040190637E-1
3.125432203E0,7.772893906E-1,2.790047526E-1,3.058516979E-1
3.127433536E0,7.815654278E-1,3.040502369E-1,2.997429967E-1
3.129434902E0,7.858414650E-1,3.077154160E-1,3.003538847E-1
3.131436235E0,7.852305770E-1,3.242087960E-1,2.960778177E-1
3.133439701E0,7.852305770E-1,3.413130045E-1,2.954669893E-1
3.135441067E0,7.876740694E-1,3.516977131E-1,2.911909223E-1
3.137442333E0,7.888957858E-1,3.547520339E-1,2.856931090E-1
3.139443599E0,7.876740694E-1,3.663584888E-1,2.832496762E-1
3.141444965E0,7.840089202E-1,3.700236678E-1,2.808062136E-1
3.143446298E0,7.791219354E-1,3.688019514E-1,2.765301466E-1
3.145447631E0,7.772893906E-1,3.657476306E-1,2.746975422E-1
3.147448997E0,7.730132937E-1,3.608606756E-1,2.728649676E-1
3.149450330E0,7.644611597E-1,3.529194593E-1,2.698106468E-1
3.151451663E0,7.675154805E-1,3.443673253E-1,2.698106468E-1
3.153453363E0,7.540764809E-1,3.223761916E-1,2.673671544E-1
3.155454696E0,7.485787272E-1,2.936655283E-1,2.710323632E-1
3.157456162E0,7.436918020E-1,2.722852528E-1,2.710323632E-1
3.159457528E0,7.326962352E-1,2.344115973E-1,2.679780126E-1
3.161458861E0,7.210897803E-1,1.843206435E-1,2.740866840E-1
3.163460194E0,7.168137431E-1,1.531665176E-1,2.710323632E-1
3.165461860E0,7.015420794E-1,9.696692228E-2,2.753084004E-1
3.167465893E0,6.893247962E-1,3.588039055E-2,2.728649676E-1
3.169467226E0,6.813835502E-1,1.061072922E-3,2.698106468E-1
3.171468926E0,6.661118865E-1,-5.941458419E-2,2.765301466E-1
3.173470259E0,6.587814689E-1,-8.934698254E-2,2.722540796E-1
3.175471592E0,6.355686784E-1,-1.418813914E-1,2.740866840E-1
3.177472925E0,6.154100895E-1,-1.907506138E-1,2.746975422E-1
3.179474258E0,6.025819182E-1,-2.151852250E-1,2.783627212E-1
3.181475558E0,5.787581801E-1,-2.530588806E-1,2.771410346E-1
3.183477024E0,5.585995913E-1,-2.909325361E-1,2.899691761E-1
3.185478357E0,5.414953828E-1,-2.988737524E-1,2.899691761E-1
3.187479723E0,5.140064955E-1,-3.300278783E-1,2.911909223E-1
3.189481056E0,4.938479066E-1,-3.428560495E-1,2.979104221E-1
3.191482389E0,4.633046389E-1,-3.477429748E-1,3.058516979E-1
3.195482955E0,4.119919538E-1,-3.459104002E-1,3.119603395E-1
3.197484355E0,3.796160817E-1,-3.349148333E-1,3.247885108E-1
3.199485788E0,3.502945602E-1,-3.178105652E-1,3.376166821E-1
3.201487121E0,3.221947551E-1,-3.037606776E-1,3.394492865E-1
3.203488454E0,2.922623456E-1,-2.781043351E-1,3.547208905E-1
3.205489820E0,2.604973614E-1,-2.414524257E-1,3.626621366E-1
3.207491153E0,2.446148843E-1,-2.219047397E-1,3.681599498E-1
3.209492419E0,2.122390121E-1,-1.754789948E-1,3.785446584E-1
3.211493785E0,1.804740280E-1,-1.272206306E-1,3.803772330E-1
3.213495118E0,1.670349836E-1,-9.362304211E-2,3.907619417E-1
3.215496451E0,1.468764395E-1,-4.169949517E-2,3.974814713E-1
3.217497684E0,1.383243203E-1,-7.491040509E-3,3.993140459E-1
3.219499017E0,1.132788509E-1,5.481721461E-2,4.017575085E-1
3.221500350E0,9.678549320E-2,1.122385487E-1,3.987031877E-1
3.223501016E0,8.701164275E-2,1.421709508E-1,4.011466801E-1
3.225502349E0,6.807482243E-2,2.099769861E-1,3.962597251E-1
3.229502348E0,5.035972968E-2,2.893894613E-1,3.864859045E-1
3.231503681E0,3.569896147E-2,3.437564671E-1,3.791555166E-1
3.233505014E0,2.531425655E-2,3.846844435E-1,3.644947410E-1
3.235506380E0,1.859473810E-2,4.030103981E-1,3.589969575E-1
3.237507713E0,6.988298614E-3,4.274449944E-1,3.382275403E-1
3.239509046E0,5.155702587E-3,4.396623373E-1,3.260102272E-1
3.241510446E0,-2.785545541E-3,4.463818371E-1,3.058516979E-1
3.243511646E0,-1.744631119E-2,4.561556578E-1,2.838605344E-1
3.245512979E0,-2.172236890E-2,4.555448294E-1,2.728649676E-1
3.247514312E0,-2.783101983E-2,4.512687624E-1,2.410999537E-1
3.249515645E0,-3.943746164E-2,4.353862703E-1,2.239957303E-1
3.251517011E0,-4.065919295E-2,4.207254946E-1,2.136110216E-1
3.253518344E0,-5.104389787E-2,3.932365775E-1,1.958959401E-1
3.255519610E0,-6.203947589E-2,3.633041680E-1,1.732939184E-1
3.257520976E0,-6.203947589E-2,3.486433923E-1,1.647417992E-1
3.259522309E0,-6.753726304E-2,3.229870498E-1,1.464158446E-1
3.261523642E0,-7.670024037E-2,2.887786031E-1,1.244246960E-1
3.263525008E0,-8.158716559E-2,2.710635066E-1,1.189269125E-1
3.265526341E0,-8.647408336E-2,2.374659330E-1,1.036552787E-1
3.267527674E0,-8.952841163E-2,2.179182321E-1,9.510316700E-2
3.269529107E0,-9.808052331E-2,1.843206435E-1,8.716192096E-2
3.271530440E0,-1.048000380E-1,1.574425846E-1,7.494460791E-2
3.273531706E0,-1.084652320E-1,1.433926672E-1,7.189028710E-2
3.275533006E0,-1.237368658E-1,1.146820039E-1,6.700336188E-2
3.277534139E0,-1.316781193E-1,9.269085526E-2,6.394904107E-2
3.279535405E0,-1.396193504E-1,8.047355711E-2,6.455990672E-2
3.281536705E0,-1.518366635E-1,5.420634896E-2,7.433374971E-2
3.283538605E0,-1.640539765E-1,1.877616532E-2,7.860980183E-2
3.285539938E0,-1.652756929E-1,1.061072922E-3,8.471845835E-2
3.287541304E0,-1.842125207E-1,-2.826045826E-2,9.876835346E-2
3.289542570E0,-1.878777146E-1,-4.780814797E-2,1.024335474E-1
3.291543903E0,-1.976515651E-1,-8.018400520E-2,1.195377707E-1
3.293545269E0,-2.013167590E-1,-1.070620716E-1,1.317550838E-1
3.295546602E0,-2.037602067E-1,-1.174467877E-1,1.384745985E-1
3.297547935E0,-2.062036693E-1,-1.394379288E-1,1.513027698E-1
3.299549301E0,-2.019276172E-1,-1.461574584E-1,1.561896950E-1
3.301550367E0,-1.970406920E-1,-1.492117792E-1,1.598548889E-1
3.303551700E0,-1.903211772E-1,-1.357727349E-1,1.592440158E-1
3.305553066E0,-1.823799312E-1,-1.180576459E-1,1.574114263E-1
3.307554399E0,-1.701626331E-1,-1.107272655E-1,1.549679637E-1
3.309555399E0,-1.524475217E-1,-7.163188607E-2,1.476375759E-1
3.311556732E0,-1.341215670E-1,-3.436911106E-2,1.433615237E-1
3.313558065E0,-1.261803210E-1,-1.298882812E-2,1.396963298E-1
3.315559131E0,-1.011348516E-1,2.977173962E-2,1.354202777E-1
3.317560464E0,-9.624792635E-2,5.909327045E-2,1.335876733E-1
3.319561797E0,-8.097629249E-2,1.006321087E-1,1.348094046E-1
3.321563163E0,-5.959601328E-2,1.397274733E-1,1.305333525E-1
3.323564496E0,-5.837428197E-2,1.543882489E-1,1.280898899E-1
3.325565829E0,-5.593081936E-2,1.794337332E-1,1.238138378E-1
3.327567195E0,-5.898514763E-2,2.063117921E-1,1.170943156E-1
3.329568528E0,-6.326120347E-2,2.099769861E-1,1.091530696E-1
3.331569861E0,-7.547850907E-2,2.179182321E-1,1.048770174E-1
3.333571294E0,-9.075013548E-2,2.203616947E-1,9.449230134E-2
3.335572694E0,-9.991311282E-2,2.203616947E-1,9.327057004E-2
3.337574227E0,-1.127412841E-1,2.124204338E-1,9.082710743E-2
3.339582960E0,-1.298455149E-1,1.971488148E-1,8.777277917E-2
3.341584360E0,-1.365650296E-1,1.959270984E-1,8.594018221E-2
3.343585126E0,-1.555018574E-1,1.702707559E-1,8.532932401E-2
3.345586492E0,-1.628322452E-1,1.629403681E-1,8.594018221E-2
3.347587825E0,-1.689408869E-1,1.305644959E-1,9.204884619E-2
3.349589225E0,-1.829908043E-1,1.018538326E-1,9.693576396E-2
3.351590591E0,-1.897103190E-1,8.841480315E-2,1.012118235E-1
3.353591924E0,-1.939863712E-1,4.748683050E-2,1.048770174E-1
3.355593257E0,-2.013167590E-1,1.022405177E-2,1.091530696E-1
3.357594623E0,-1.939863712E-1,-9.934501722E-3,1.103747934E-1
3.359595956E0,-1.982624233E-1,-5.941458419E-2,1.158725843E-1
3.361597556E0,-1.988732964E-1,-7.651881129E-2,1.170943156E-1
3.363598922E0,-1.933754981E-1,-1.247771680E-1,1.183160469E-1
3.365600255E0,-1.897103190E-1,-1.638725400E-1,1.232029647E-1
3.367601588E0,-1.909320354E-1,-1.815876365E-1,1.183160469E-1
3.369603288E0,-1.829908043E-1,-2.219047397E-1,1.170943156E-1
3.371604621E0,-1.744386703E-1,-2.622218728E-1,1.134291217E-1
3.373605954E0,-1.713843495E-1,-2.848238647E-1,1.134291217E-1
3.375607654E0,-1.701626331E-1,-3.147562444E-1,1.085421965E-1
3.377608987E0,-1.622213721E-1,-3.349148333E-1,1.024335474E-1
3.379610320E0,-1.597779095E-1,-3.477429748E-1,9.815749526E-2
3.381611653E0,-1.500040740E-1,-3.617928624E-1,8.655105531E-2
3.383612986E0,-1.432845443E-1,-3.709558845E-1,7.616634667E-2
3.385614319E0,-1.371759027E-1,-3.648472130E-1,7.372288406E-2
3.387615652E0,-1.335107088E-1,-3.599602878E-1,5.600779131E-2
3.389617252E0,-1.310672462E-1,-3.514081836E-1,4.745567590E-2
3.391618918E0,-1.170173511E-1,-3.355256617E-1,3.829269856E-2
3.393620184E0,-1.096869633E-1,-3.025389314E-1,2.668625861E-2
3.395621184E0,-1.060217768E-1,-2.921542227E-1,1.752328128E-2
3.397622550E0,-1.011348516E-1,-2.432850152E-1,2.862514462E-3
3.401617916E0,-8.097629249E-2,-1.736463904E-1,-2.218296006E-2
3.403619282E0,-7.120245695E-2,-1.211119741E-1,-2.645901591E-2
3.405620615E0,-5.959601328E-2,-6.369064003E-2,-4.050891846E-2
3.407621948E0,-5.654168874E-2,-3.559084237E-2,-4.173064977E-2
3.409623314E0,-4.737870768E-2,2.366308868E-2,-5.028276145E-2
3.411624580E0,-4.127005860E-2,4.931942746E-2,-5.455881730E-2
3.413625913E0,-3.210707754E-2,1.110168174E-1,-5.822401121E-2
3.415627279E0,-2.477669530E-2,1.727142036E-1,-6.616526097E-2
3.417628612E0,-2.233323269E-2,1.995922923E-1,-6.677612662E-2
3.419629945E0,-1.378112007E-2,2.551810145E-1,-7.410650700E-2
3.421631311E0,-1.563815051E-3,3.046610951E-1,-7.166304439E-2
3.423632644E0,-2.174680121E-3,3.339826465E-1,-7.410650700E-2
3.425633977E0,3.933972213E-3,3.773540556E-1,-7.716083527E-2
3.427635343E0,7.599163335E-3,4.195037484E-1,-7.716083527E-2
3.429636676E0,1.065349020E-2,4.359971285E-1,-7.777170092E-2
3.431638009E0,5.766567774E-3,4.683730006E-1,-8.082602918E-2
3.433639375E0,5.766567774E-3,4.903641343E-1,-7.716083527E-2
3.435640708E0,6.988298614E-3,5.038031340E-1,-7.838255912E-2
3.437642041E0,7.599163335E-3,5.202965140E-1,-7.532823831E-2
3.439643407E0,4.544837400E-3,5.239617229E-1,-7.166304439E-2
3.441644740E0,-9.529497474E-4,5.282378197E-1,-7.716083527E-2
3.443646073E0,-7.672467735E-3,5.264052153E-1,-7.227391005E-2
3.445647439E0,-8.283332922E-3,5.215182304E-1,-7.227391005E-2
3.447648772E0,-1.561371610E-2,5.111335516E-1,-7.166304439E-2
3.449649838E0,-1.805717684E-2,4.848663211E-1,-6.983045489E-2
3.451650871E0,-1.683544554E-2,4.757033587E-1,-7.166304439E-2
3.453652271E0,-2.416582778E-2,4.494361579E-1,-6.127833575E-2
3.455653937E0,-2.844188549E-2,4.176711738E-1,-6.372179836E-2
3.457655270E0,-3.149621189E-2,3.993452191E-1,-6.005660444E-2
3.459656603E0,-3.638313338E-2,3.578063548E-1,-5.700227991E-2
3.461657969E0,-4.065919295E-2,3.358152211E-1,-5.578054860E-2
3.463659302E0,-4.798957333E-2,2.936655283E-1,-5.639141425E-2
3.465660635E0,-5.409822613E-2,2.429637164E-1,-5.883487687E-2
3.467661935E0,-5.531995744E-2,2.203616947E-1,-5.761314556E-2
3.469663268E0,-6.020687893E-2,1.672164202E-1,-5.516968668E-2
3.471664668E0,-6.875899434E-2,1.201797947E-1,-5.394795164E-2
3.473666034E0,-6.875899434E-2,9.757778049E-2,-5.639141425E-2
3.475667167E0,-6.998071820E-2,5.115202442E-2,-6.066747382E-2
3.477668500E0,-7.975456864E-2,1.511097327E-2,-5.944573879E-2
3.479669866E0,-7.853283733E-2,-6.269310135E-3,-6.494352967E-2
3.481671199E0,-8.036543429E-2,-3.497997671E-2,-6.799785793E-2
3.483672532E0,-8.647408336E-2,-6.124718115E-2,-6.799785793E-2
3.485673898E0,-8.403062075E-2,-7.163188607E-2,-7.288477570E-2
3.487675231E0,-8.891753852E-2,-9.423390031E-2,-7.654996216E-2
3.489676564E0,-8.891753852E-2,-9.545563161E-2,-7.532823831E-2
3.491677930E0,-9.013927728E-2,-1.003425568E-1,-7.899343222E-2
3.493679263E0,-9.380446374E-2,-9.973169118E-2,-8.449121565E-2
3.495680596E0,-9.746965766E-2,-1.058403477E-1,-8.998900652E-2
3.497681962E0,-1.041891798E-1,-9.667737037E-2,-9.487592429E-2
3.499683295E0,-1.048000380E-1,-8.323833346E-2,-9.854111820E-2
3.501684628E0,-1.060217768E-1,-8.140573651E-2,-1.034280360E-1
3.503685994E0,-1.090760976E-1,-6.674497575E-2,-1.101475507E-1
3.505687327E0,-1.139630228E-1,-4.108862951E-2,-1.132018790E-1
3.507688660E0,-1.157956198E-1,-2.887132391E-2,-1.180888042E-1
3.509690026E0,-1.212934032E-1,-9.323636070E-3,-1.284735054E-1
3.511691359E0,-1.243477315E-1,5.337129813E-3,-1.303061098E-1
3.513692692E0,-1.292346567E-1,2.916087396E-2,-1.370256245E-1
3.515694058E0,-1.298455149E-1,6.275846064E-2,-1.370256245E-1
3.517695324E0,-1.335107088E-1,8.108442277E-2,-1.431342810E-1
3.519696657E0,-1.359541565E-1,1.152928770E-1,-1.486320645E-1
3.521697923E0,-1.347324401E-1,1.482796073E-1,-1.547407210E-1
3.523699256E0,-1.341215670E-1,1.659946889E-1,-1.590167731E-1
3.525700589E0,-1.353433132E-1,2.008140087E-1,-1.663471460E-1
3.527701989E0,-1.341215670E-1,2.350224555E-1,-1.687906235E-1
3.529703322E0,-1.390084922E-1,2.606787980E-1,-1.712340862E-1
3.531704688E0,-1.426736861E-1,2.936655283E-1,-1.724558175E-1
3.533706021E0,-1.451171488E-1,3.119914830E-1,-1.730666757E-1
3.535707554E0,-1.408410966E-1,3.468107879E-1,-1.761209965E-1
3.537708920E0,-1.445062906E-1,3.773540556E-1,-1.767318696E-1
3.539710253E0,-1.457280070E-1,4.011777937E-1,-1.816187948E-1
3.541711586E0,-1.487823278E-1,4.250015616E-1,-1.816187948E-1
3.543712952E0,-1.457280070E-1,4.506579041E-1,-1.865057051E-1
3.545714285E0,-1.506149322E-1,4.659295380E-1,-1.846731156E-1
3.547715618E0,-1.561127156E-1,4.763142467E-1,-1.938360929E-1
3.549716984E0,-1.603887826E-1,4.952510595E-1,-1.920034885E-1
3.551718317E0,-1.664974391E-1,4.934184551E-1,-1.907817721E-1
3.553719650E0,-1.744386703E-1,4.940293133E-1,-1.956686825E-1
3.555721016E0,-1.787147373E-1,4.940293133E-1,-1.975012869E-1
3.557722349E0,-1.860451251E-1,4.909749925E-1,-1.956686825E-1
3.559723615E0,-1.994841546E-1,4.848663211E-1,-1.975012869E-1
3.561724981E0,-1.988732964E-1,4.757033587E-1,-1.956686825E-1
3.563726314E0,-2.110905945E-1,4.659295380E-1,-2.005556226E-1
3.565727647E0,-2.190318406E-1,4.494361579E-1,-1.975012869E-1
3.567729013E0,-2.214753032E-1,4.366080165E-1,-1.956686825E-1
3.569730346E0,-2.355252057E-1,4.164494276E-1,-1.999447495E-1
3.571731679E0,-2.391903996E-1,3.907930851E-1,-1.993338764E-1
3.573733045E0,-2.440773100E-1,3.797975183E-1,-1.950578243E-1
3.575734378E0,-2.501859665E-1,3.510868549E-1,-1.889491677E-1
3.577735778E0,-2.593489289E-1,3.193218708E-1,-1.810079217E-1
3.579737078E0,-2.630141377E-1,3.046610951E-1,-1.773427278E-1
3.581738478E0,-2.666793168E-1,2.704526484E-1,-1.724558175E-1
3.583739811E0,-2.691228092E-1,2.521266937E-1,-1.675688922E-1
3.585741177E0,-2.788966298E-1,2.160856277E-1,-1.553515792E-1
3.587742510E0,-2.831726968E-1,1.782119870E-1,-1.413016766E-1
3.589743843E0,-2.868378758E-1,1.568317115E-1,-1.388582140E-1
3.591749943E0,-2.880595922E-1,1.244558468E-1,-1.339713037E-1
3.593751276E0,-2.960008681E-1,8.536047488E-2,-1.150344759E-1
3.595752609E0,-3.008877933E-1,7.008884102E-2,-1.113692820E-1
3.597753875E0,-3.021095395E-1,3.099346906E-2,-1.022063047E-1
3.599755208E0,-3.076072931E-1,-1.382387942E-3,-9.243246168E-2
3.601756574E0,-3.137159348E-1,-2.337353677E-2,-8.815640956E-2
3.603757907E0,-3.137159348E-1,-5.025160685E-2,-7.654996216E-2
3.605759240E0,-3.192137480E-1,-7.835140824E-2,-7.349564135E-2
3.607760606E0,-3.234898150E-1,-8.629265428E-2,-6.799785793E-2
3.609761872E0,-3.210463226E-1,-1.137815937E-1,-5.944573879E-2
3.611763205E0,-3.241006732E-1,-1.198902428E-1,-5.211535469E-2
3.613764571E0,-3.277658820E-1,-1.376053244E-1,-5.028276145E-2
3.615765904E0,-3.326527774E-1,-1.473791748E-1,-4.661756754E-2
3.617767237E0,-3.314310610E-1,-1.516552418E-1,-4.417410865E-2
3.619768670E0,-3.338745236E-1,-1.510443687E-1,-3.989805281E-2
3.621770003E0,-3.363179564E-1,-1.449357122E-1,-3.623285890E-2
3.623771336E0,-3.430374861E-1,-1.486009061E-1,-3.928718716E-2
3.625772702E0,-3.387614489E-1,-1.296640933E-1,-3.501113132E-2
3.627774035E0,-3.399831653E-1,-1.088946685E-1,-3.378940374E-2
3.629775368E0,-3.442592025E-1,-9.423390031E-2,-3.623285890E-2
3.631776734E0,-3.424266279E-1,-6.307977438E-2,-3.928718716E-2
3.633778067E0,-3.369288445E-1,-4.597555101E-2,-3.928718716E-2
3.635779400E0,-3.418157697E-1,-6.269310135E-3,-3.928718716E-2
3.637780766E0,-3.375397027E-1,2.793914452E-2,-4.906103015E-2
3.639782166E0,-3.357070982E-1,5.115202442E-2,-4.661756754E-2
3.641783499E0,-3.375397027E-1,9.574518353E-2,-5.028276145E-2
3.643784865E0,-3.338745236E-1,1.330079585E-1,-5.822401121E-2
3.645786198E0,-3.302093148E-1,1.574425846E-1,-6.127833575E-2
3.647787531E0,-3.326527774E-1,2.032574564E-1,-6.555438787E-2
3.649788897E0,-3.308202028E-1,2.374659330E-1,-7.410650700E-2
3.653786730E0,-3.259332478E-1,2.918329239E-1,-8.510208130E-2
3.655788096E0,-3.216572106E-1,3.058828413E-1,-8.449121565E-2
3.657789496E0,-3.259332478E-1,3.431456089E-1,-9.243246168E-2
3.659790829E0,-3.271549940E-1,3.718562722E-1,-9.915198386E-2
3.661792162E0,-3.271549940E-1,3.810192645E-1,-1.009845734E-1
3.663793495E0,-3.253223896E-1,4.011777937E-1,-1.058714986E-1
3.665794795E0,-3.253223896E-1,4.146168530E-1,-1.113692820E-1
3.667796128E0,-3.265441358E-1,4.250015616E-1,-1.132018790E-1
3.669797528E0,-3.259332478E-1,4.311102033E-1,-1.235865951E-1
3.671798894E0,-3.338745236E-1,4.402731955E-1,-1.223648638E-1
3.673800227E0,-3.326527774E-1,4.414949119E-1,-1.235865951E-1
3.675801560E0,-3.387614489E-1,4.408840537E-1,-1.248083189E-1
3.677802926E0,-3.412048817E-1,4.384405911E-1,-1.315278262E-1
3.679804259E0,-3.430374861E-1,4.353862703E-1,-1.303061098E-1
3.681805592E0,-3.485352695E-1,4.304993153E-1,-1.327495724E-1
3.683806958E0,-3.534222245E-1,4.256124198E-1,-1.315278262E-1
3.685808291E0,-3.509787321E-1,4.109516740E-1,-1.303061098E-1
3.687809624E0,-3.638069034E-1,3.956800103E-1,-1.241974533E-1
3.689810990E0,-3.680829704E-1,3.877387643E-1,-1.272517890E-1
3.691812323E0,-3.680829704E-1,3.651367426E-1,-1.248083189E-1
3.693813656E0,-3.735807538E-1,3.394804001E-1,-1.205322668E-1
3.695815022E0,-3.833545744E-1,3.339826465E-1,-1.162562072E-1
3.697816355E0,-3.857980669E-1,3.040502369E-1,-1.156453416E-1
3.699817688E0,-3.931284547E-1,2.777830064E-1,-1.107584238E-1
3.701818988E0,-3.974044919E-1,2.673983276E-1,-1.083149537E-1
3.703820321E0,-4.059565961E-1,2.325789928E-1,-1.034280360E-1
3.705821654E0,-4.071783423E-1,2.191399634E-1,-9.854111820E-2
3.707823020E0,-4.145087302E-1,1.806554496E-1,-9.609765559E-2
3.709824353E0,-4.230608344E-1,1.464470029E-1,-9.121073037E-2
3.711825753E0,-4.279477596E-1,1.256775856E-1,-9.304332733E-2
3.713827119E0,-4.352781475E-1,9.207999706E-2,-8.876727521E-2
3.715828452E0,-4.419976473E-1,4.931942746E-2,-7.777170092E-2
3.717829752E0,-4.474954605E-1,3.282606602E-2,-7.960429043E-2
3.719831118E0,-4.517715275E-1,-5.047579296E-3,-7.899343222E-2
3.721832451E0,-4.591018856E-1,-4.169949517E-2,-7.838255912E-2
3.723833784E0,-4.621562064E-1,-6.063631922E-2,-7.899343222E-2
3.725835184E0,-4.609344900E-1,-9.179044515E-2,-7.960429043E-2
3.727836450E0,-4.621562064E-1,-1.247771680E-1,-8.388034999E-2
3.729837783E0,-4.591018856E-1,-1.394379288E-1,-8.204775304E-2
3.731839116E0,-4.615453482E-1,-1.705920547E-1,-8.815640956E-2
3.733840449E0,-4.578801692E-1,-1.760898381E-1,-8.571294695E-2
3.735841782E0,-4.597127438E-1,-1.938049495E-1,-9.426505864E-2
3.737843115E0,-4.627670944E-1,-2.060222477E-1,-1.003737077E-1
3.739845248E0,-4.591018856E-1,-2.133526355E-1,-1.046497673E-1
3.741846581E0,-4.560475349E-1,-2.206830084E-1,-1.089258268E-1
3.743848181E0,-4.529932141E-1,-2.267916501E-1,-1.186996698E-1
3.745849514E0,-4.505497813E-1,-2.267916501E-1,-1.248083189E-1
3.747850880E0,-4.450519681E-1,-2.261808068E-1,-1.303061098E-1
3.749852213E0,-4.432193935E-1,-2.261808068E-1,-1.431342810E-1
3.751853546E0,-4.377215803E-1,-2.231264710E-1,-1.498537958E-1
3.753854912E0,-4.364998639E-1,-2.133526355E-1,-1.626819670E-1
3.755856178E0,-4.279477596E-1,-2.164069563E-1,-1.681797504E-1
3.757857444E0,-4.242825508E-1,-1.986918598E-1,-1.791753173E-1
3.759858744E0,-4.273368716E-1,-1.815876365E-1,-1.950578243E-1
3.761860077E0,-4.261151850E-1,-1.663160026E-1,-2.023882121E-1
3.763861343E0,-4.181739092E-1,-1.492117792E-1,-2.194924355E-1
3.765862643E0,-4.096218050E-1,-1.186685190E-1,-2.298771292E-1
3.767863909E0,-4.084000587E-1,-1.021751538E-1,-2.396509796E-1
3.769865242E0,-4.010696709E-1,-6.796669960E-2,-2.537008822E-1
3.771866608E0,-3.955718875E-1,-3.620170429E-2,-2.720268667E-1
3.773867941E0,-3.925175667E-1,-1.482142322E-2,-2.830224335E-1
3.775869207E0,-3.796893954E-1,2.366308868E-2,-2.989048958E-1
3.777870607E0,-3.803002536E-1,7.497576624E-2,-3.062352836E-1
3.779871940E0,-3.766350746E-1,9.941037744E-2,-3.196743429E-1
3.781873273E0,-3.656395078E-1,1.427818090E-1,-3.410546184E-1
3.783874639E0,-3.601417243E-1,1.763793975E-1,-3.459415138E-1
3.785875639E0,-3.515895903E-1,2.240268886E-1,-3.532719016E-1
3.787877039E0,-3.485352695E-1,2.808373272E-1,-3.746522069E-1
3.789878405E0,-3.424266279E-1,3.052719831E-1,-3.783174157E-1
3.791879738E0,-3.387614489E-1,3.504759967E-1,-3.917564452E-1
3.793881071E0,-3.295984566E-1,3.993452191E-1,-4.009194076E-1
3.795882437E0,-3.259332478E-1,4.152277112E-1,-4.039737284E-1
3.797883770E0,-3.234898150E-1,4.488252997E-1,-4.100823998E-1
3.799884303E0,-3.094398975E-1,4.805903137E-1,-4.168018997E-1
3.801885669E0,-3.069964349E-1,4.921967089E-1,-4.241322875E-1
3.803886735E0,-3.002769053E-1,5.129660964E-1,-4.235214293E-1
3.805887968E0,-2.929465473E-1,5.202965140E-1,-4.235214293E-1
3.807889301E0,-2.911139429E-1,5.257943273E-1,-4.277974963E-1
3.809890634E0,-2.850052714E-1,5.331246853E-1,-4.204671085E-1
3.811891967E0,-2.752314508E-1,5.337355733E-1,-4.192453623E-1
3.813893300E0,-2.740097046E-1,5.325138569E-1,-4.143584669E-1
3.815894700E0,-2.672902048E-1,5.325138569E-1,-4.033628702E-1
3.817896066E0,-2.611815631E-1,5.312921405E-1,-3.972541988E-1
3.819897466E0,-2.544620335E-1,5.300703645E-1,-3.887021244E-1
3.821898866E0,-2.477425039E-1,5.325138569E-1,-3.783174157E-1
3.823900299E0,-2.440773100E-1,5.386224985E-1,-3.685435355E-1
3.825901699E0,-2.434664518E-1,5.508397818E-1,-3.459415138E-1
3.827903032E0,-2.404121310E-1,5.551158190E-1,-3.422763348E-1
3.829904398E0,-2.306382805E-1,5.771070123E-1,-3.239503801E-1
3.831905664E0,-2.214753032E-1,5.954329967E-1,-3.031809628E-1
3.833906930E0,-2.196426988E-1,6.064285040E-1,-2.872984707E-1
3.835908363E0,-2.092579901E-1,6.357500553E-1,-2.714159787E-1
3.837909696E0,-2.013167590E-1,6.632390022E-1,-2.420944571E-1
3.839911029E0,-2.007058859E-1,6.803432107E-1,-2.323206067E-1
3.841912329E0,-1.903211772E-1,7.090538740E-1,-2.109403163E-1
3.843913662E0,-1.811581999E-1,7.426514626E-1,-1.785644740E-1
3.845915328E0,-1.781038642E-1,7.530362010E-1,-1.626819670E-1
3.847916694E0,-1.719952226E-1,7.744164467E-1,-1.370256245E-1
3.849918027E0,-1.561127156E-1,7.909098268E-1,-1.235865951E-1
3.851919360E0,-1.500040740E-1,7.860229015E-1,-1.168670729E-1
3.853920660E0,-1.390084922E-1,7.811359763E-1,-1.064823642E-1
3.855921993E0,-1.341215670E-1,7.713621259E-1,-1.046497673E-1
3.857923326E0,-1.151847541E-1,7.548687458E-1,-9.609765559E-2
3.859924692E0,-9.808052331E-2,7.249364257E-1,-9.854111820E-2
3.861926025E0,-8.830668032E-2,7.053886652E-1,-9.487592429E-2
3.863927358E0,-6.142860651E-2,6.516325474E-1,-9.670852125E-2
3.865928824E0,-4.615698010E-2,5.972655416E-1,-8.937813342E-2
3.867930157E0,-3.332880884E-2,5.624462366E-1,-8.388034999E-2
3.869931490E0,-1.133765932E-2,4.909749925E-1,-8.326948434E-2
3.871932856E0,5.766567774E-3,4.127842486E-1,-8.265862614E-2
3.873934122E0,1.615127735E-2,3.742997348E-1,-8.388034999E-2
3.875935455E0,3.386636823E-2,2.942763865E-1,-8.632381260E-2
3.877936855E0,4.119675234E-2,2.539592981E-1,-8.937813342E-2
3.879938188E0,5.463578925E-2,1.757685393E-1,-9.243246168E-2
3.881939521E0,6.379877031E-2,9.941037744E-2,-9.793025255E-2
3.883940854E0,7.418347150E-2,6.214759871E-2,-1.028171703E-1
3.885942187E0,7.662694156E-2,-1.787574962E-2,-1.089258268E-1
3.887943620E0,7.845953107E-2,-9.667737037E-2,-1.107584238E-1
3.889944953E0,8.334644884E-2,-1.339401454E-1,-1.138127446E-1
3.891946353E0,8.456818759E-2,-2.176286727E-1,-1.101475507E-1
3.893947786E0,8.578991890E-2,-3.055932820E-1,-1.095366925E-1
3.895949119E0,8.701164275E-2,-3.422452211E-1,-1.095366925E-1
3.897950452E0,8.395732194E-2,-4.222685695E-1,-1.070932299E-1
3.899951818E0,9.067683667E-2,-4.919071794E-1,-1.077040955E-1
3.901953218E0,8.578991890E-2,-5.193961263E-1,-1.015954465E-1
3.903954551E0,8.762251586E-2,-5.792609453E-1,-9.854111820E-2
3.905955917E0,8.273559064E-2,-5.951434374E-1,-9.670852125E-2
3.907957250E0,7.968126237E-2,-6.324061751E-1,-9.059987217E-2
3.909958583E0,7.540520281E-2,-6.537864804E-1,-8.815640956E-2
3.911959949E0,7.479434460E-2,-6.653928757E-1,-8.876727521E-2
3.913961349E0,7.357260585E-2,-6.684472561E-1,-8.265862614E-2
3.915966482E0,6.440962851E-2,-6.525647640E-1,-8.082602918E-2
3.917967848E0,6.074443832E-2,-6.409583092E-1,-7.532823831E-2
3.919969181E0,6.013357639E-2,-6.177453995E-1,-7.593910396E-2
3.921970514E0,5.402491987E-2,-5.829260945E-1,-6.983045489E-2
3.923971880E0,5.707925186E-2,-5.615458488E-1,-6.921958178E-2
3.925973213E0,5.341405794E-2,-5.236721635E-1,-7.471737266E-2
3.927974546E0,5.402491987E-2,-4.992375374E-1,-7.288477570E-2
3.929975912E0,5.524665490E-2,-4.509792030E-1,-6.799785793E-2
3.931977245E0,6.257703155E-2,-3.978339136E-1,-7.044131309E-2
3.933978645E0,6.074443832E-2,-3.727884591E-1,-6.921958178E-2
3.935980011E0,6.440962851E-2,-3.110910654E-1,-6.677612662E-2
3.937981344E0,6.929655373E-2,-2.542805970E-1,-6.799785793E-2
3.939982677E0,7.601606846E-2,-2.298459858E-1,-6.677612662E-2
3.941984043E0,7.662694156E-2,-1.693703234E-1,-6.372179836E-2
3.943985376E0,7.662694156E-2,-1.040077507E-1,-6.433266401E-2
3.945986709E0,7.174001634E-2,-7.407535613E-2,-6.494352967E-2
3.947988042E0,7.112915069E-2,-7.491040509E-3,-6.616526097E-2
3.949989375E0,6.807482243E-2,1.938702911E-2,-6.616526097E-2
3.951990708E0,6.196616963E-2,7.925182581E-2,-6.433266401E-2
3.953992041E0,5.769011378E-2,1.317862421E-1,-6.616526097E-2
3.955993374E0,4.852713272E-2,1.513339281E-1,-6.433266401E-2
3.957994740E0,4.119675234E-2,1.940944940E-1,-6.616526097E-2
3.959996340E0,2.836858109E-2,2.197508216E-1,-6.372179836E-2
3.961997940E0,2.653598599E-2,2.307464033E-1,-6.494352967E-2
3.963999573E0,1.554041170E-2,2.490723580E-1,-6.677612662E-2
3.966000906E0,1.248608623E-2,2.539592981E-1,-6.188920140E-2
3.968002239E0,5.155702587E-3,2.539592981E-1,-5.883487687E-2
3.970003605E0,-2.174680121E-3,2.539592981E-1,-5.578054860E-2
3.972004871E0,-2.785545541E-3,2.509049475E-1,-4.783930257E-2
3.974006204E0,-1.563815051E-3,2.435745746E-1,-4.906103015E-2
3.978005103E0,2.101376420E-3,2.362441868E-1,-2.890247665E-2
3.980006436E0,1.920560189E-2,2.307464033E-1,-1.912863366E-2
3.982007802E0,2.775771730E-2,2.124204338E-1,-8.743925020E-3
3.984009135E0,3.814242408E-2,2.057009339E-1,-2.024407499E-3
3.986010235E0,4.608367383E-2,1.806554496E-1,1.019289810E-2
3.988011601E0,6.135530397E-2,1.501121968E-1,2.057760581E-2
3.990012934E0,6.440962851E-2,1.385057569E-1,2.668625861E-2
3.992014267E0,7.907039672E-2,9.330172837E-2,3.707096726E-2
3.994015633E0,8.823337406E-2,4.687596485E-2,4.317962006E-2
3.996017233E0,9.128770232E-2,2.060876042E-2,4.989913851E-2
3.998018866E0,9.739635140E-2,-3.559084237E-2,5.112086982E-2
4.000020232E0,1.016724110E-1,-6.124718115E-2,5.051000044E-2
4.002021232E0,1.047267392E-1,-1.296640933E-1,5.051000044E-2
4.004022565E0,1.065593362E-1,-1.938049495E-1,4.562308267E-2
4.006023931E0,1.059484705E-1,-2.231264710E-1,4.928827286E-2
4.008025264E0,1.108353883E-1,-2.781043351E-1,4.195788875E-2
4.010026564E0,1.145005822E-1,-3.471321166E-1,2.912972122E-2
4.012027930E0,1.102245227E-1,-3.697341383E-1,2.424279787E-2
4.014029263E0,1.065593362E-1,-4.265445769E-1,2.057760581E-2
4.016030596E0,1.065593362E-1,-4.815224707E-1,9.582032450E-3
4.018031929E0,1.077810675E-1,-5.004593134E-1,3.473379882E-3
4.020032995E0,1.102245227E-1,-5.383329391E-1,-6.300464272E-3
