"Time (s)","Acceleration x (m/s^2)","Acceleration y (m/s^2)","Acceleration z (m/s^2)"
1.180800000E-1,8.176448822E0,1.460507631E0,1.376708031E0
1.200810000E-1,8.176448822E0,1.460507631E0,1.376708031E0
1.240803330E-1,1.274711895E1,-4.142095447E-1,1.261782765E0
1.260817330E-1,1.249093151E1,-3.471698463E-1,1.079817891E0
1.280828990E-1,1.238558388E1,-3.351984620E-1,1.010383964E0
1.300841840E-1,1.214136791E1,-2.537931204E-1,8.643332124E-1
1.320854340E-1,1.198095131E1,-1.819648892E-1,7.254652381E-1
1.340866560E-1,1.189954567E1,-1.245022863E-1,6.751855016E-1
1.360900560E-1,1.176786041E1,-5.985686928E-2,5.842030644E-1
1.380914190E-1,1.167208958E1,9.577099234E-3,5.195576549E-1
1.400927520E-1,1.163856983E1,4.549122229E-2,5.147690773E-1
1.420940590E-1,1.155477047E1,7.422251999E-2,5.267404318E-1
1.440949870E-1,1.150927925E1,9.337671846E-2,5.387118459E-1
1.460962530E-1,1.139195919E1,1.292908341E-1,6.225114465E-1
1.480988780E-1,1.127224541E1,1.580221355E-1,7.398309112E-1
1.501002300E-1,1.120760059E1,1.532335877E-1,7.948992252E-1
1.521015630E-1,1.101605797E1,1.652049571E-1,9.792584181E-1
1.541028780E-1,1.084367085E1,1.628106833E-1,1.177983165E0
1.561041780E-1,1.075268841E1,1.484450400E-1,1.297696948E0
1.581054630E-1,1.057072353E1,1.005595401E-1,1.563461423E0
1.601067810E-1,1.041988373E1,9.337671846E-2,1.838803053E0
1.621080850E-1,1.033129597E1,5.746259540E-2,1.965699673E0
1.641094180E-1,1.016369629E1,4.549122229E-2,2.229069948E0
1.661107380E-1,1.009905148E1,4.070267081E-2,2.360754967E0
1.681119300E-1,9.967366219E0,9.577099234E-3,2.588211060E0
1.701132260E-1,9.881172180E0,-2.633702382E-2,2.813272953E0
1.721145110E-1,9.802161217E0,-1.675992459E-2,2.894678354E0
1.741158550E-1,9.703995705E0,-2.633702382E-2,3.069460392E0
1.761171880E-1,9.586676598E0,-1.915419847E-2,3.198751211E0
1.781185210E-1,9.548367500E0,-1.675992459E-2,3.239453793E0
1.801250870E-1,9.459779739E0,2.633702382E-2,3.292127848E0
1.821266870E-1,9.371191978E0,5.267404765E-2,3.304099321E0
1.841280530E-1,9.371191978E0,9.098244458E-2,3.294522047E0
1.861293530E-1,9.318517685E0,1.604164094E-1,3.263396502E0
1.881307190E-1,9.306546211E0,2.035133541E-1,3.213116884E0
1.901320520E-1,9.287391663E0,2.442160249E-1,3.114951611E0
1.921334180E-1,9.251478195E0,2.968900800E-1,3.000026226E0
1.941347510E-1,9.241900444E0,2.992843390E-1,2.942563772E0
1.961354170E-1,9.196409225E0,3.519583941E-1,2.796513081E0
1.981367500E-1,9.162889481E0,3.663240373E-1,2.664827824E0
2.001380830E-1,9.153312683E0,3.711125851E-1,2.571451187E0
2.021394490E-1,9.110215187E0,4.022381604E-1,2.430188894E0
2.041409490E-1,9.055147171E0,3.926610649E-1,2.279349566E0
2.061423150E-1,9.021627426E0,3.782954216E-1,2.197944164E0
2.081429810E-1,8.992896080E0,3.687183261E-1,2.037527800E0
2.101443140E-1,8.935433388E0,3.543526828E-1,1.982459545E0
2.121456470E-1,8.947404861E0,3.423812985E-1,1.850774407E0
2.141470130E-1,8.971347809E0,3.184385598E-1,1.781340480E0
2.161483790E-1,8.959376335E0,2.944957912E-1,1.747820616E0
2.181497120E-1,8.937828064E0,2.442160249E-1,1.723877907E0
2.201510780E-1,8.925856590E0,1.604164094E-1,1.709512234E0
2.221524440E-1,8.916279793E0,1.053480953E-1,1.687963724E0
2.241537440E-1,8.980924606E0,1.915419847E-2,1.671203852E0
2.261551100E-1,9.071907043E0,-7.422251999E-2,1.673598051E0
2.281565760E-1,9.126976013E0,-1.340793967E-1,1.654443860E0
2.301579420E-1,9.217958450E0,-2.490045726E-1,1.673598051E0
2.321604080E-1,9.306546211E0,-3.543526828E-1,1.671203852E0
2.341617740E-1,9.352037430E0,-4.046324492E-1,1.664021015E0
2.361631070E-1,9.416683197E0,-5.530774593E-1,1.675992370E0
2.381644400E-1,9.421471596E0,-6.296942830E-1,1.695146561E0
2.421619390E-1,9.581888199E0,-9.146129489E-1,1.699935079E0
2.441633050E-1,9.579493523E0,-9.840469360E-1,1.707117915E0
2.461646380E-1,9.601041794E0,-1.122914910E0,1.714300752E0
2.481659710E-1,9.574705124E0,-1.230657220E0,1.723877907E0
2.501673370E-1,9.593858719E0,-1.276148438E0,1.728666425E0
2.521686370E-1,9.560338974E0,-1.391073704E0,1.738243461E0
2.541740030E-1,9.507665634E0,-1.453324795E0,1.747820616E0
2.561753360E-1,9.483722687E0,-1.505998850E0,1.759791970E0
2.581766690E-1,9.416683197E0,-1.587404251E0,1.783734679E0
2.601780020E-1,9.347249031E0,-1.664021015E0,1.776551962E0
2.621790680E-1,9.337671280E0,-1.683175206E0,1.762186289E0
2.641804010E-1,9.268238068E0,-1.721483588E0,1.747820616E0
2.661817670E-1,9.244295120E0,-1.752609134E0,1.733454943E0
2.681831000E-1,9.234718323E0,-1.750214934E0,1.714300752E0
2.701844330E-1,9.205986977E0,-1.747820616E0,1.680780888E0
2.721902990E-1,9.179649353E0,-1.759791970E0,1.683175206E0
2.741913320E-1,9.095849991E0,-1.716695070E0,1.654443860E0
2.761926320E-1,8.992896080E0,-1.697540879E0,1.611346960E0
2.781939320E-1,8.937828064E0,-1.702329397E0,1.585009933E0
2.801954980E-1,8.870788574E0,-1.661626697E0,1.541913033E0
2.821968310E-1,8.791776657E0,-1.635289669E0,1.532335877E0
2.841982310E-1,8.741497040E0,-1.628106833E0,1.520364523E0
2.861995310E-1,8.667274475E0,-1.589798450E0,1.482056141E0
2.882008310E-1,8.605023384E0,-1.546701550E0,1.472478986E0
2.902021970E-1,8.581081390E0,-1.515576005E0,1.470084786E0
2.922024300E-1,8.545166969E0,-1.438959122E0,1.460507631E0
2.942037300E-1,8.514040947E0,-1.395862222E0,1.470084786E0
2.962050960E-1,8.454184532E0,-1.312062621E0,1.491633177E0
2.982064620E-1,8.403904915E0,-1.225868702E0,1.503604531E0
3.002077950E-1,8.365595818E0,-1.192348838E0,1.532335877E0
3.022132280E-1,8.277008057E0,-1.154040456E0,1.594586968E0
3.042145610E-1,8.214756966E0,-1.134886265E0,1.637683988E0
3.062159270E-1,8.176448822E0,-1.108549237E0,1.649655342E0
3.082172600E-1,8.059128761E0,-1.077423692E0,1.719089270E0
3.102185600E-1,8.020820618E0,-1.051086664E0,1.733454943E0
3.122199260E-1,7.951386452E0,-1.046298146E0,1.778946161E0
3.162185920E-1,7.790970325E0,-1.003201127E0,1.869928598E0
3.182199250E-1,7.702382088E0,-9.888355136E-1,1.920208454E0
3.202212910E-1,7.589851379E0,-1.017566800E0,2.004008055E0
3.222228910E-1,7.551542759E0,-1.027143836E0,2.018373728E0
3.242242570E-1,7.470137596E0,-1.053480864E0,2.071047783E0
3.262255900E-1,7.395915031E0,-1.075029373E0,2.128510237E0
3.282269230E-1,7.345634937E0,-1.070240855E0,2.162030220E0
3.302282560E-1,7.254652500E0,-1.077423692E0,2.231464148E0
3.342266890E-1,7.151699066E0,-1.079817891E0,2.327235222E0
3.362280890E-1,7.094236374E0,-1.058269501E0,2.372726440E0
3.382294890E-1,7.084659100E0,-1.043903828E0,2.379909277E0
3.402308550E-1,7.031985283E0,-1.024749637E0,2.406246185E0
3.422321880E-1,6.967339516E0,-9.577099085E-1,2.427794695E0
3.442335210E-1,6.960156918E0,-9.241901040E-1,2.439765930E0
3.462348870E-1,6.960156918E0,-8.786988258E-1,2.482862949E0
3.482362530E-1,6.931425571E0,-8.260248303E-1,2.470891714E0
3.502375860E-1,6.924242973E0,-7.925049663E-1,2.478074312E0
3.522389190E-1,6.926637173E0,-7.278595567E-1,2.470891714E0
3.542402850E-1,6.895511627E0,-6.823683381E-1,2.480468750E0
3.562415850E-1,6.895511627E0,-6.440598965E-1,2.466103077E0
3.582429180E-1,6.881145954E0,-6.129343510E-1,2.470891714E0
3.602442510E-1,6.885934353E0,-5.770202279E-1,2.456526041E0
3.642427840E-1,6.811711788E0,-4.788549542E-1,2.430188894E0
3.662441170E-1,6.804529190E0,-4.549122155E-1,2.432583094E0
3.682454500E-1,6.768614769E0,-4.477293789E-1,2.382303476E0
3.702467830E-1,6.763826370E0,-4.405465722E-1,2.343995094E0
3.722481160E-1,6.759037971E0,-4.285751879E-1,2.334417820E0
3.742526490E-1,6.794951916E0,-4.333637357E-1,2.303292274E0
3.762537150E-1,6.806923389E0,-4.166038036E-1,2.238646984E0
3.782550480E-1,6.845231533E0,-4.022381604E-1,2.185972929E0
3.802563480E-1,6.871568680E0,-4.022381604E-1,2.171607256E0
3.822605480E-1,6.945791245E0,-4.142095447E-1,2.116539001E0
3.842631480E-1,7.005648136E0,-4.166038036E-1,2.073441982E0
3.862664480E-1,7.127756119E0,-4.285751879E-1,2.020767927E0
3.882677810E-1,7.194795609E0,-4.285751879E-1,1.977671027E0
3.902688470E-1,7.362394810E0,-4.357580245E-1,1.908236980E0
3.922701470E-1,7.537177086E0,-4.764606953E-1,1.831620216E0
3.942715130E-1,7.592245579E0,-4.956148863E-1,1.800494671E0
3.962728460E-1,7.819701672E0,-5.506832004E-1,1.745426297E0
3.982742120E-1,8.039975166E0,-6.440598965E-1,1.668809533E0
4.002749780E-1,8.142929077E0,-7.254652381E-1,1.640078187E0
4.022763110E-1,8.348835945E0,-8.547561169E-1,1.599375606E0
4.042776440E-1,8.600234985E0,-9.864411950E-1,1.573038578E0
4.062792440E-1,8.724737167E0,-1.089395046E0,1.532335877E0
4.082805770E-1,8.992896080E0,-1.271359921E0,1.537124395E0
4.102816770E-1,9.148524284E0,-1.362342358E0,1.539518714E0
4.122830770E-1,9.404711723E0,-1.573038578E0,1.563461423E0
4.142880100E-1,9.665687561E0,-1.743032098E0,1.608952641E0
4.162893760E-1,9.787795067E0,-1.845985889E0,1.649655342E0
4.182904090E-1,1.000806904E1,-2.047105074E0,1.716695070E0
4.202917750E-1,1.021637058E1,-2.238646984E0,1.836408734E0
4.222931410E-1,1.032411289E1,-2.329629421E0,1.903448462E0
4.242945740E-1,1.052762604E1,-2.478074312E0,2.025556564E0
4.262959400E-1,1.071437931E1,-2.612153769E0,2.176395893E0
4.282972730E-1,1.081254482E1,-2.688770533E0,2.264983892E0
4.302986730E-1,1.098493290E1,-2.789330244E0,2.394274712E0
4.323000390E-1,1.106633854E1,-2.873129845E0,2.468497276E0
4.362998380E-1,1.137759399E1,-2.880312681E0,2.822849989E0
4.383012040E-1,1.149730778E1,-2.858764172E0,2.976083517E0
4.403066700E-1,1.155716419E1,-2.822849989E0,3.067065954E0
4.443052360E-1,1.170560932E1,-2.662433624E0,3.308887720E0
4.483066680E-1,1.186363125E1,-2.317657948E0,3.632114887E0
4.503082680E-1,1.190433407E1,-2.209915638E0,3.696760416E0
4.523096340E-1,1.196897984E1,-1.975276709E0,3.835628271E0
4.543109670E-1,1.202165413E1,-1.704723716E0,3.969707727E0
4.563123000E-1,1.205756760E1,-1.587404251E0,4.031958580E0
4.583136330E-1,1.213179016E1,-1.295302629E0,4.146883965E0
4.603152990E-1,1.217488766E1,-1.177983165E0,4.225894928E0
4.623166650E-1,1.224911022E1,-9.002473354E-1,4.359974384E0
4.643181310E-1,1.233769798E1,-5.865973234E-1,4.462928295E0
4.663192310E-1,1.241431522E1,-4.285751879E-1,4.508419514E0
4.683205640E-1,1.258670235E1,-1.388679445E-1,4.549122334E0
4.703221300E-1,1.286204433E1,1.245022863E-1,4.510813713E0
4.723234630E-1,1.302246094E1,2.585816681E-1,4.472505569E0
4.763225620E-1,1.383172512E1,6.512427330E-1,3.996044636E0
4.783242280E-1,1.404002762E1,7.182824612E-1,3.811685562E0
4.803255610E-1,1.445423698E1,8.284190893E-1,3.395081758E0
4.823269270E-1,1.466253853E1,8.739103079E-1,3.191568375E0
4.843279270E-1,1.510308552E1,8.643332124E-1,2.846792698E0
4.863292600E-1,1.546222687E1,7.589851022E-1,2.554691315E0
4.883306600E-1,1.560588360E1,7.015225291E-1,2.475680113E0
4.903319930E-1,1.581657982E1,6.368771195E-1,2.320052385E0
4.923333260E-1,1.594347572E1,6.608198285E-1,2.205127001E0
4.943346920E-1,1.600572777E1,6.536370516E-1,2.166818619E0
4.963360250E-1,1.613501740E1,5.985686779E-1,2.085413456E0
4.983384910E-1,1.622839546E1,5.506832004E-1,2.023162127E0
5.023370900E-1,1.643190765E1,5.123748183E-1,1.903448462E0
5.043384230E-1,1.664978790E1,4.573064744E-1,1.857957244E0
5.063397560E-1,1.674795151E1,4.142095447E-1,1.716695070E0
5.083403890E-1,1.687724304E1,4.046324492E-1,1.558672905E0
5.103417220E-1,1.695385933E1,4.261809289E-1,1.465296149E0
5.123430880E-1,1.692991638E1,5.650488734E-1,1.359948039E0
5.143444540E-1,1.679104996E1,6.919454336E-1,1.362342358E0
5.163457870E-1,1.669288445E1,7.470137477E-1,1.386285067E0
5.183471530E-1,1.649655342E1,8.763045669E-1,1.436564922E0
5.203484860E-1,1.629543495E1,9.577099085E-1,1.462901950E0
5.223498190E-1,1.617572021E1,9.960182905E-1,1.415016413E0
5.243510190E-1,1.590995598E1,1.072635174E0,1.324033976E0
5.263523190E-1,1.560827732E1,1.158828974E0,1.204320192E0
5.283536850E-1,1.543349552E1,1.204320192E0,1.161223292E0
5.303550510E-1,1.511266232E1,1.304879785E0,1.096577883E0
5.323563840E-1,1.494745731E1,1.340793848E0,1.082212210E0
5.343577170E-1,1.467451000E1,1.429382086E0,1.103760719E0
5.363590500E-1,1.439677429E1,1.494027495E0,1.146857619E0
5.383603830E-1,1.425790691E1,1.539518714E0,1.177983165E0
5.403623490E-1,1.400650787E1,1.628106833E0,1.221080184E0
5.423636490E-1,1.377426338E1,1.702329397E0,1.268965602E0
5.443659820E-1,1.367130947E1,1.752609134E0,1.283331275E0
5.463673150E-1,1.342469883E1,1.836408734E0,1.268965602E0
5.483686480E-1,1.316372299E1,1.917814136E0,1.264177084E0
5.503697480E-1,1.303203773E1,1.944151163E0,1.233051538E0
5.523711140E-1,1.277345657E1,2.006402254E0,1.149251938E0
5.543724470E-1,1.262740517E1,2.066259146E0,1.091789365E0
5.563737470E-1,1.234966946E1,2.102173328E0,9.672870040E-1
5.583739800E-1,1.202883625E1,2.176395893E0,8.092648983E-1
5.603753130E-1,1.186123753E1,2.219492674E0,7.254652381E-1
5.623768460E-1,1.154040432E1,2.264983892E0,5.770202279E-1
5.643782120E-1,1.120520592E1,2.322446585E0,4.142095447E-1
5.663795780E-1,1.105197239E1,2.351177931E0,3.399870098E-1
5.683809110E-1,1.073832226E1,2.365543604E0,1.915419847E-1
5.703874110E-1,1.041270161E1,2.387091875E0,7.901106775E-2
5.723884770E-1,1.026425648E1,2.387091875E0,1.915419847E-2
5.743898100E-1,9.972154617E0,2.394274712E0,-3.351984918E-2
5.763909430E-1,9.624984741E0,2.411034822E0,-5.027977005E-2
5.783963760E-1,9.464568138E0,2.418217659E0,-6.943397224E-2
5.803974090E-1,9.165284157E0,2.423006058E0,-9.577099234E-2
5.823994750E-1,8.997684479E0,2.406246185E0,-9.816526622E-2
5.844008080E-1,8.710371971E0,2.403851986E0,-1.053480953E-1
5.864021410E-1,8.432636261E0,2.401457548E0,-1.412622184E-1
5.884032070E-1,8.300951004E0,2.401457548E0,-1.245022863E-1
5.904045400E-1,8.030397415E0,2.418217659E0,-1.173194647E-1
5.924058730E-1,7.774210453E0,2.430188894E0,-1.101366431E-1
5.944072060E-1,7.659285069E0,2.458920240E0,-1.125309169E-1
5.964085390E-1,7.470137596E0,2.497228622E0,-6.464541703E-2
5.984152720E-1,7.345634937E0,2.525959969E0,-9.577099234E-3
6.004159720E-1,7.292961121E0,2.552296877E0,4.788549617E-3
6.024173050E-1,7.206767082E0,2.612153769E0,8.379961550E-2
6.044179380E-1,7.142121792E0,2.679193497E0,1.364736706E-1
6.064193040E-1,7.106207848E0,2.710319042E0,2.059076279E-1
6.084206370E-1,7.070293427E0,2.753416061E0,2.442160249E-1
6.104222030E-1,7.065505028E0,2.772570133E0,2.657645047E-1
6.124235030E-1,7.118178844E0,2.803695917E0,3.088614643E-1
6.144248360E-1,7.187613010E0,2.834821463E0,3.711125851E-1
6.164262020E-1,7.235498428E0,2.842004299E0,3.950553536E-1
6.184275350E-1,7.381549358E0,2.820455790E0,4.285751879E-1
6.204288680E-1,7.510839939E0,2.774964571E0,4.573064744E-1
6.224300680E-1,7.589851379E0,2.739050388E0,4.740664065E-1
6.244314010E-1,7.800547123E0,2.650462151E0,4.788549542E-1
6.264327340E-1,8.001666069E0,2.516382933E0,4.860377908E-1
6.284340670E-1,8.090254784E0,2.430188894E0,4.908263385E-1
6.324319000E-1,8.399115562E0,2.135693073E0,4.788549542E-1
6.344332660E-1,8.616994858E0,1.920208454E0,4.716721475E-1
6.364347990E-1,8.810931206E0,1.668809533E0,4.620950520E-1
6.404336650E-1,9.079090118E0,1.290514112E0,4.597007632E-1
6.424342650E-1,9.258660316E0,1.024749637E0,4.716721475E-1
6.444360650E-1,9.349642754E0,9.026415944E-1,4.908263385E-1
6.464374650E-1,9.526819229E0,6.512427330E-1,4.932205975E-1
6.484390980E-1,9.713572502E0,3.830839694E-1,5.051919818E-1
6.504404310E-1,9.799766541E0,2.753416002E-1,5.243461728E-1
6.524417640E-1,9.988914490E0,1.915419847E-2,5.435003638E-1
6.544431300E-1,1.009186840E1,-1.221080124E-1,5.458946824E-1
6.564444630E-1,1.028341007E1,-3.639297783E-1,5.698373914E-1
6.604417950E-1,1.057311726E1,-7.278595567E-1,5.506832004E-1
6.624431610E-1,1.074550533E1,-9.385557175E-1,5.387118459E-1
6.644445270E-1,1.091310501E1,-1.125309110E0,5.387118459E-1
6.664458600E-1,1.098972130E1,-1.223474383E0,5.387118459E-1
6.684471600E-1,1.110704041E1,-1.359948039E0,5.339232683E-1
6.704485260E-1,1.120041752E1,-1.486844659E0,5.315290093E-1
6.724498920E-1,1.121478367E1,-1.553884387E0,5.267404318E-1
6.744512250E-1,1.126266861E1,-1.668809533E0,5.315290093E-1
6.764525910E-1,1.125069714E1,-1.752609134E0,5.219519138E-1
6.784538910E-1,1.116450310E1,-1.807677507E0,5.339232683E-1
6.804552240E-1,1.111661816E1,-1.819648862E0,5.123748183E-1
6.824565240E-1,1.103521252E1,-1.814860344E0,4.980091453E-1
6.844578240E-1,1.078141975E1,-1.783734679E0,4.812492430E-1
6.864591570E-1,1.052044392E1,-1.716695070E0,4.716721475E-1
6.884604900E-1,1.039354706E1,-1.656838179E0,4.764606953E-1
6.904618230E-1,1.016130257E1,-1.544307232E0,4.908263385E-1
6.924638230E-1,9.962577820E0,-1.429382086E0,4.836435020E-1
6.944651560E-1,9.873989105E0,-1.364736676E0,5.004034638E-1
6.964664890E-1,9.720755577E0,-1.206714511E0,5.363175869E-1
6.984678890E-1,9.574705124E0,-1.022355318E0,5.554717779E-1
7.004692220E-1,9.493299484E0,-9.265843630E-1,5.698373914E-1
7.024705880E-1,9.387951851E0,-7.158881426E-1,5.937801600E-1
7.044714880E-1,9.313729286E0,-5.961744189E-1,6.057515144E-1
7.064728210E-1,9.198803902E0,-4.070267081E-1,6.320885420E-1
7.084741540E-1,9.098244667E0,-1.460507661E-1,6.751855016E-1
7.104755200E-1,9.059935570E0,-9.577099234E-3,6.919454336E-1
7.124768860E-1,8.990502357E0,2.154847383E-1,7.158881426E-1
7.144782190E-1,8.894730568E0,4.884320498E-1,7.374366522E-1
7.164795850E-1,8.873182297E0,6.440598965E-1,7.589851022E-1
7.184809180E-1,8.813325882E0,9.002473354E-1,7.877163887E-1
7.204822180E-1,8.789382935E0,1.170800328E0,8.547561169E-1
7.224835840E-1,8.753468513E0,1.304879785E0,8.691217303E-1
7.244849170E-1,8.710371971E0,1.585009933E0,9.146129489E-1
7.264862170E-1,8.674457550E0,1.857957244E0,9.289786220E-1
7.284876170E-1,8.631361008E0,1.987248063E0,9.864411950E-1
7.304889500E-1,8.566715240E0,2.241041183E0,1.036720991E0
7.324909830E-1,8.554743767E0,2.367937803E0,1.053480864E0
7.344923490E-1,8.502069473E0,2.554691315E0,1.108549237E0
7.364938150E-1,8.444606781E0,2.758204460E0,1.154040456E0
7.384951480E-1,8.379961967E0,2.942563772E0,1.187560320E0
7.404962810E-1,8.341653824E0,3.023969173E0,1.209108829E0
7.424976140E-1,8.250671387E0,3.143682718E0,1.278542757E0
7.444989800E-1,8.181237221E0,3.205934048E0,1.295302629E0
7.465003130E-1,8.075888634E0,3.289733648E0,1.338399649E0
7.485016460E-1,7.960963726E0,3.359167576E0,1.345582485E0
7.505029790E-1,7.893924236E0,3.392687321E0,1.333611012E0
7.525036790E-1,7.786181450E0,3.435784340E0,1.340793848E0
7.545050120E-1,7.719141960E0,3.433390141E0,1.333611012E0
7.565063780E-1,7.597033978E0,3.421418667E0,1.312062621E0
7.585076780E-1,7.448588848E0,3.373533249E0,1.264177084E0
7.605101440E-1,7.398309231E0,3.347196102E0,1.245022893E0
7.625114770E-1,7.266623974E0,3.275367975E0,1.182771802E0
7.645125430E-1,7.137333393E0,3.189173937E0,1.127703428E0
7.665139090E-1,6.998465061E0,3.074248791E0,1.120520592E0
7.685152420E-1,6.919454098E0,3.028757572E0,1.077423692E0
7.705165750E-1,6.790163517E0,2.913832426E0,1.043903828E0
7.725179080E-1,6.723123550E0,2.858764172E0,1.043903828E0
7.745192410E-1,6.574678421E0,2.724684715E0,1.022355318E0
7.765205740E-1,6.490879059E0,2.655250788E0,1.015172482E0
7.785218740E-1,6.330462456E0,2.525959969E0,9.840469360E-1
7.805232400E-1,6.201171875E0,2.370332003E0,9.888355136E-1
7.825245730E-1,6.138920784E0,2.310475111E0,9.840469360E-1
7.845257390E-1,5.992869854E0,2.154847383E0,9.601042271E-1
7.865271050E-1,5.863578796E0,2.004008055E0,9.337671995E-1
7.885305380E-1,5.791750908E0,1.922602654E0,9.217957854E-1
7.905318710E-1,5.662459850E0,1.766974807E0,9.337671995E-1
7.925325040E-1,5.545140266E0,1.618529797E0,8.954587579E-1
7.945345370E-1,5.473312378E0,1.553884387E0,8.739103079E-1
7.965357370E-1,5.367964268E0,1.400650740E0,8.571503758E-1
7.985424370E-1,5.262616158E0,1.280937076E0,8.356019258E-1
8.005440030E-1,5.207547665E0,1.211503029E0,8.236305118E-1
8.025453360E-1,5.138113976E0,1.058269501E0,7.996878028E-1
8.045466690E-1,5.097411156E0,9.840469360E-1,7.877163887E-1
8.065480020E-1,5.049525738E0,8.092648983E-1,7.877163887E-1
8.085493680E-1,5.020794392E0,6.632141471E-1,7.925049663E-1
8.105507010E-1,5.020794392E0,5.794144869E-1,7.757450342E-1
8.125520340E-1,5.030371189E0,4.094209969E-1,7.805336118E-1
8.145533670E-1,5.085439682E0,2.513988614E-1,7.805336118E-1
8.165547330E-1,5.097411156E0,1.891477108E-1,7.877163887E-1
8.185560990E-1,5.164450645E0,7.182824612E-2,7.972934842E-1
8.205562990E-1,5.272192955E0,-3.112557158E-2,8.308133483E-1
8.225576650E-1,5.332049847E0,-8.619388938E-2,8.451790214E-1
8.245592650E-1,5.461340904E0,-1.939362586E-1,8.523618579E-1
8.265605650E-1,5.518803596E0,-2.346389294E-1,8.858816624E-1
8.285619310E-1,5.672037125E0,-3.280156553E-1,9.337671995E-1
8.305632310E-1,5.818087578E0,-3.854782581E-1,9.816526771E-1
8.325645640E-1,5.887521744E0,-4.070267081E-1,1.000806928E0
8.345659300E-1,6.004841328E0,-4.812492430E-1,1.087000728E0
8.365672630E-1,6.146103382E0,-5.339232683E-1,1.173194647E0
8.385686630E-1,6.210748672E0,-5.482889414E-1,1.197137356E0
8.405700290E-1,6.323279858E0,-6.081457734E-1,1.314456820E0
8.425713950E-1,6.457359314E0,-6.560313106E-1,1.383890867E0
8.445728950E-1,6.533976078E0,-6.895511150E-1,1.434170604E0
8.465742280E-1,6.677632332E0,-7.446194887E-1,1.510787368E0
8.505747940E-1,6.888328552E0,-8.044763207E-1,1.671203852E0
8.525761600E-1,7.075081825E0,-8.547561169E-1,1.723877907E0
8.545767930E-1,7.158881664E0,-8.691217303E-1,1.752609134E0
8.565781590E-1,7.321692467E0,-8.978530765E-1,1.812466025E0
8.605754920E-1,7.585062504E0,-9.505270720E-1,1.865140080E0
8.625768920E-1,7.798152924E0,-9.624984860E-1,1.901054144E0
8.645782580E-1,7.987300873E0,-9.960182905E-1,1.932179809E0
8.665796240E-1,8.097437859E0,-9.792584181E-1,1.941756845E0
8.685809900E-1,8.320104599E0,-1.005595446E0,1.932179809E0
8.705823560E-1,8.540378571E0,-1.017566800E0,1.939362645E0
8.725836890E-1,8.652909279E0,-1.003201127E0,1.951334000E0
8.745850550E-1,8.880365372E0,-1.012778282E0,1.941756845E0
8.765863880E-1,9.000079155E0,-1.015172482E0,1.944151163E0
8.785876880E-1,9.217958450E0,-1.005595446E0,1.924996972E0
8.805890540E-1,9.443019867E0,-1.000806928E0,1.922602654E0
8.825903870E-1,9.550762177E0,-1.003201127E0,1.920208454E0
8.845917530E-1,9.790189743E0,-9.888355136E-1,1.905842781E0
8.865931190E-1,9.962577820E0,-9.457385540E-1,1.874717116E0
8.885944520E-1,1.005356026E1,-9.098244309E-1,1.872322917E0
8.905958180E-1,1.024031353E1,-8.739103079E-1,1.834014535E0
8.925971840E-1,1.040551853E1,-8.212362528E-1,1.805283189E0
8.945985170E-1,1.047495270E1,-7.925049663E-1,1.798100352E0
8.965995830E-1,1.062818623E1,-7.374366522E-1,1.766974807E0
8.986009160E-1,1.070240879E1,-7.134938836E-1,1.747820616E0
9.006022490E-1,1.080296803E1,-6.368771195E-1,1.721483588E0
9.026035820E-1,1.092028713E1,-5.650488734E-1,1.675992370E0
9.046049480E-1,1.098014450E1,-5.123748183E-1,1.635289669E0
9.066063140E-1,1.106873226E1,-4.477293789E-1,1.606558442E0
9.086077140E-1,1.115253162E1,-3.543526828E-1,1.577827096E0
9.106090140E-1,1.117168617E1,-2.825244367E-1,1.561067224E0
9.126103470E-1,1.122196579E1,-2.154847383E-1,1.515576005E0
9.146117130E-1,1.126745701E1,-1.245022863E-1,1.494027495E0
9.166130460E-1,1.129139996E1,-7.182824612E-2,1.460507631E0
9.186143790E-1,1.128182316E1,4.309694469E-2,1.465296149E0
9.206157450E-1,1.129618835E1,1.221080124E-1,1.482056141E0
9.226170780E-1,1.128900528E1,1.939362586E-1,1.486844659E0
9.246184110E-1,1.129858303E1,3.232271075E-1,1.520364523E0
9.266197770E-1,1.127224541E1,3.615354896E-1,1.529941559E0
9.286211100E-1,1.125548553E1,4.692778587E-1,1.575432777E0
9.306224430E-1,1.121957207E1,5.937801600E-1,1.649655342E0
9.326238090E-1,1.119323444E1,6.392713785E-1,1.685569525E0
9.346258420E-1,1.117408085E1,7.398309112E-1,1.747820616E0
9.366271750E-1,1.110464668E1,8.188419938E-1,1.814860344E0
9.386285750E-1,1.108309841E1,8.858816624E-1,1.877111435E0
9.406299080E-1,1.105436707E1,9.409499764E-1,1.953728199E0
9.426312080E-1,1.102802944E1,9.912297726E-1,2.037527800E0
9.446325740E-1,1.099690437E1,1.012778282E0,2.121327400E0
9.466339400E-1,1.098972130E1,1.036720991E0,2.205127001E0
9.486354400E-1,1.096098995E1,1.048692346E0,2.248224020E0
9.506367730E-1,1.094423008E1,1.053480864E0,2.360754967E0
9.526381060E-1,1.091310501E1,1.055875182E0,2.432583094E0
9.546394390E-1,1.090831566E1,1.041509509E0,2.480468750E0
9.566410720E-1,1.089634418E1,1.046298146E0,2.561874151E0
9.586424050E-1,1.090352726E1,1.036720991E0,2.645673752E0
9.606437380E-1,1.090592194E1,1.015172482E0,2.683982134E0
9.626450710E-1,1.093225861E1,9.984126091E-1,2.782147408E0
9.646463710E-1,1.094662476E1,9.601042271E-1,2.880312681E0
9.666477040E-1,1.094662476E1,9.720755816E-1,2.901860952E0
9.686490370E-1,1.101845264E1,9.146129489E-1,2.980872154E0
9.706503700E-1,1.103042412E1,8.332076073E-1,3.033546209E0
9.726517360E-1,1.110704041E1,7.996878028E-1,3.136499882E0
9.746530690E-1,1.114534950E1,7.589851022E-1,3.251425266E0
9.766544020E-1,1.116929245E1,7.230709791E-1,3.306493521E0
9.786558680E-1,1.123154354E1,6.273000240E-1,3.385504484E0
9.806572340E-1,1.132731438E1,5.770202279E-1,3.481275558E0
9.826585670E-1,1.136562252E1,5.435003638E-1,3.512401104E0
9.846599000E-1,1.144463348E1,4.620950520E-1,3.615355015E0
9.866612000E-1,1.149251938E1,3.663240373E-1,3.696760416E0
9.886625330E-1,1.153082752E1,3.160442710E-1,3.751828671E0
9.906638660E-1,1.160026169E1,2.226675600E-1,3.838022470E0
9.926649660E-1,1.166251278E1,1.245022863E-1,3.914639235E0
9.946655660E-1,1.169842625E1,7.422251999E-2,3.940976381E0
9.966668990E-1,1.175110054E1,0.000000000E0,4.000833035E0
9.986688320E-1,1.178701496E1,-4.070267081E-2,4.029564381E0
1.000670165E0,1.184687138E1,-1.316851079E-1,4.079844475E0
1.002671531E0,1.188757420E1,-2.059076279E-1,4.166038036E0
1.004672831E0,1.191630554E1,-2.418217510E-1,4.209135056E0
1.006674131E0,1.195461369E1,-3.232271075E-1,4.300117493E0
1.008675297E0,1.199292278E1,-3.878725171E-1,4.355185986E0
1.010676663E0,1.198334503E1,-4.046324492E-1,4.393494129E0
1.012677996E0,1.201447105E1,-4.692778587E-1,4.477293968E0
1.014679362E0,1.203841400E1,-5.195576549E-1,4.506025314E0
1.016680695E0,1.203601933E1,-5.530774593E-1,4.527573586E0
1.018682028E0,1.207193375E1,-5.913859010E-1,4.498842239E0
1.020683361E0,1.210305882E1,-6.320885420E-1,4.479688168E0
1.022684694E0,1.217728138E1,-6.703969240E-1,4.383917332E0
1.024686060E0,1.231136131E1,-6.991282701E-1,4.290540695E0
1.026692260E0,1.248853779E1,-7.206767201E-1,4.144489765E0
1.028693560E0,1.259628010E1,-7.182824612E-1,4.058295727E0
1.030694926E0,1.283331299E1,-7.134938836E-1,3.940976381E0
1.032696259E0,1.293866062E1,-6.967339516E-1,3.895485163E0
1.034697559E0,1.320442581E1,-6.249057055E-1,3.773377180E0
1.036698892E0,1.336963081E1,-4.980091453E-1,3.651269197E0
1.038700125E0,1.354441261E1,-3.471698463E-1,3.495641232E0
1.040701458E0,1.366891479E1,-2.585816681E-1,3.433390141E0
1.042702824E0,1.397538185E1,-7.422251999E-2,3.373533249E0
1.044704190E0,1.410946178E1,3.112557158E-2,3.263396502E0
1.046705523E0,1.441114044E1,2.202732861E-1,3.131711483E0
1.048706889E0,1.456916237E1,3.160442710E-1,3.040729046E0
1.050708222E0,1.481577206E1,5.099805593E-1,2.853975534E0
1.052709788E0,1.501689148E1,7.110996246E-1,2.578634024E0
1.054711188E0,1.508871937E1,8.020820618E-1,2.418217659E0
1.056712521E0,1.516054821E1,9.457385540E-1,2.068653345E0
1.058713221E0,1.509350872E1,1.139674783E0,1.675992370E0
1.060714554E0,1.503365135E1,1.216291547E0,1.474873304E0
1.062715654E0,1.488760090E1,1.362342358E0,1.046298146E0
1.064716987E0,1.475112724E1,1.453324795E0,6.368771195E-1
1.066718320E0,1.465296173E1,1.465296149E0,4.118152559E-1
1.068719653E0,1.445902538E1,1.474873304E0,-9.577099234E-3
1.070720953E0,1.433691788E1,1.460507631E0,-1.795706153E-1
1.072721986E0,1.405199909E1,1.412622094E0,-5.506832004E-1
1.074723286E0,1.371919441E1,1.369525194E0,-8.786988258E-1
1.076724586E0,1.354201794E1,1.347976685E0,-1.012778282E0
1.078725919E0,1.320681953E1,1.290514112E0,-1.256994247E0
1.080727252E0,1.290993023E1,1.201925993E0,-1.441353440E0
1.082728552E0,1.276148510E1,1.163617611E0,-1.527547359E0
1.084729918E0,1.252684593E1,1.077423692E0,-1.623318315E0
1.088727784E0,1.225150394E1,9.265843630E-1,-1.635289669E0
1.090729150E0,1.211024189E1,8.284190893E-1,-1.585009933E0
1.092730483E0,1.200728798E1,6.919454336E-1,-1.510787368E0
1.094731849E0,1.195700836E1,6.344828010E-1,-1.359948039E0
1.096733215E0,1.188278580E1,4.932205975E-1,-1.175588965E0
1.098734548E0,1.181574631E1,3.806896806E-1,-9.505270720E-1
1.100735881E0,1.177504349E1,3.232271075E-1,-8.403904438E-1
1.102737181E0,1.171518707E1,2.202732861E-1,-5.985686779E-1
1.104738481E0,1.171039772E1,1.652049571E-1,-4.740664065E-1
1.106739847E0,1.167448425E1,7.901106775E-2,-2.322446555E-1
1.108741147E0,1.165772438E1,-1.197137404E-2,-1.915419847E-2
1.110742513E0,1.164335823E1,-3.351984918E-2,9.098244458E-2
1.112743846E0,1.163138676E1,-1.005595401E-1,3.040728867E-1
1.114745179E0,1.163617516E1,-1.388679445E-1,4.884320498E-1
1.116746545E0,1.163378143E1,-1.628106833E-1,5.889915824E-1
1.118747945E0,1.161702156E1,-1.795706153E-1,7.422251701E-1
1.120749311E0,1.160744381E1,-1.771763414E-1,8.068706393E-1
1.122750911E0,1.160505009E1,-2.226675600E-1,9.194015265E-1
1.124752277E0,1.158829021E1,-2.609759569E-1,9.864411950E-1
1.126753643E0,1.155955887E1,-3.064671755E-1,1.027143836E0
1.128755009E0,1.151406765E1,-3.663240373E-1,1.070240855E0
1.130756375E0,1.143026829E1,-4.620950520E-1,1.070240855E0
1.132758041E0,1.139674854E1,-5.171633363E-1,1.060663700E0
1.134759374E0,1.127703476E1,-6.249057055E-1,1.031932473E0
1.136760474E0,1.113816643E1,-7.661679387E-1,9.409499764E-1
1.138761840E0,1.105436707E1,-8.332076073E-1,8.810931444E-1
1.140763206E0,1.085803604E1,-9.984126091E-1,7.422251701E-1
1.142764606E0,1.074311066E1,-1.180377483E0,6.584255695E-1
1.144765906E0,1.055396366E1,-1.295302629E0,4.501236677E-1
1.146767239E0,1.034805584E1,-1.494027495E0,1.963305324E-1
1.148768605E0,1.026186180E1,-1.585009933E0,5.506832153E-2
1.150769938E0,1.006313705E1,-1.829225898E0,-2.083019018E-1
1.152771271E0,9.862017632E0,-2.056682110E0,-4.932205975E-1
1.154776937E0,9.754275322E0,-2.157241583E0,-6.416656375E-1
1.156778270E0,9.543579102E0,-2.382303476E0,-8.763045669E-1
1.158779603E0,9.325700760E0,-2.592999697E0,-1.077423692E0
1.160780969E0,9.203592300E0,-2.700742006E0,-1.158828974E0
1.162782302E0,8.968953133E0,-2.875524044E0,-1.276148438E0
1.164783668E0,8.703188896E0,-3.031152010E0,-1.350371003E0
1.166785768E0,8.585869789E0,-3.107768774E0,-1.359948039E0
1.168787134E0,8.288979530E0,-3.222693920E0,-1.391073704E0
1.170788167E0,8.164477348E0,-3.280156374E0,-1.405439258E0
1.172789533E0,7.886741161E0,-3.375927448E0,-1.424593568E0
1.174790866E0,7.630553722E0,-3.471698523E0,-1.410227895E0
1.176792199E0,7.503657341E0,-3.512401104E0,-1.395862222E0
1.178793532E0,7.269018173E0,-3.579440832E0,-1.362342358E0
1.180794865E0,7.043956280E0,-3.646480560E0,-1.338399649E0
1.182796231E0,6.907482624E0,-3.646480560E0,-1.328822494E0
1.184797564E0,6.696786404E0,-3.684788942E0,-1.316851139E0
1.186798897E0,6.502850533E0,-3.691971779E0,-1.314456820E0
1.188800263E0,6.392713547E0,-3.691971779E0,-1.302485466E0
1.190801596E0,6.232297421E0,-3.672817469E0,-1.347976685E0
1.192802896E0,6.158074856E0,-3.653663397E0,-1.359948039E0
1.194804262E0,6.019207001E0,-3.610566378E0,-1.383890867E0
1.196805862E0,5.961744308E0,-3.521978140E0,-1.415016413E0
1.198807162E0,5.937801361E0,-3.481275558E0,-1.426987767E0
1.200808195E0,5.959350109E0,-3.385504484E0,-1.458113313E0
1.202809528E0,6.038361073E0,-3.246636629E0,-1.472478986E0
1.204810861E0,6.103006363E0,-3.160442829E0,-1.494027495E0
1.206812227E0,6.275394440E0,-2.978477955E0,-1.484450340E0
1.208813560E0,6.512427330E0,-2.777358770E0,-1.491633177E0
1.210814893E0,6.646506786E0,-2.688770533E0,-1.489238977E0
1.212816259E0,6.941002846E0,-2.475680113E0,-1.465296149E0
1.216814625E0,7.427040577E0,-2.157241583E0,-1.371919513E0
1.218815691E0,7.771816254E0,-1.924996972E0,-1.324033976E0
1.220816991E0,7.965752125E0,-1.802888989E0,-1.273754239E0
1.222818357E0,8.365595818E0,-1.553884387E0,-1.182771802E0
1.224819690E0,8.782199860E0,-1.285725594E0,-1.084606528E0
1.226820290E0,8.990502357E0,-1.151646137E0,-1.029538155E0
1.228821356E0,9.452596664E0,-8.834874034E-1,-8.930644989E-1
1.230823022E0,9.938634872E0,-5.842030644E-1,-7.470137477E-1
1.232825055E0,1.017566776E1,-4.405465722E-1,-6.727912426E-1
1.234826388E0,1.065691757E1,-1.316851079E-1,-5.099805593E-1
1.236827754E0,1.109267521E1,1.747820675E-1,-3.328042030E-1
1.238829087E0,1.131534290E1,3.591412306E-1,-2.418217510E-1
1.240830420E0,1.177743816E1,6.536370516E-1,-4.549122229E-2
1.242831720E0,1.199771118E1,7.877163887E-1,3.351984918E-2
1.244833053E0,1.240234375E1,1.063058019E0,1.963305324E-1
1.246834386E0,1.283810139E1,1.304879785E0,3.112557232E-1
1.248835719E0,1.302246094E1,1.415016413E0,3.735068738E-1
1.250837085E0,1.334089947E1,1.594586968E0,4.573064744E-1
1.252838451E0,1.360187531E1,1.778946161E0,5.411061049E-1
1.254839784E0,1.368328094E1,1.829225898E0,5.698373914E-1
1.256841117E0,1.378623390E1,1.982459545E0,6.057515144E-1
1.258842483E0,1.380538845E1,2.090201855E0,5.913859010E-1
1.260844149E0,1.377186871E1,2.121327400E0,5.794144869E-1
1.262845482E0,1.362342358E1,2.128510237E0,5.363175869E-1
1.264846882E0,1.350610447E1,2.099778891E0,4.740664065E-1
1.266848215E0,1.330019665E1,2.085413456E0,3.735068738E-1
1.268849548E0,1.300330639E1,2.006402254E0,2.633702159E-1
1.270850914E0,1.282612991E1,1.972882390E0,1.867534369E-1
1.272852214E0,1.248853779E1,1.891477108E0,7.661679387E-2
1.274853514E0,1.211981869E1,1.766974807E0,-2.873129770E-2
1.276854847E0,1.194503689E1,1.695146561E0,-6.225114316E-2
1.278856447E0,1.159307861E1,1.544307232E0,-1.580221355E-1
1.280863313E0,1.121717739E1,1.386285067E0,-2.226675600E-1
1.282864646E0,1.102802944E1,1.312062621E0,-2.585816681E-1
1.284865979E0,1.068564892E1,1.166011810E0,-2.968900800E-1
1.286867512E0,1.035044956E1,9.864411950E-1,-3.280156553E-1
1.288868845E0,1.017566776E1,9.194015265E-1,-3.280156553E-1
1.290870178E0,9.864412308E0,7.685621977E-1,-3.208328187E-1
1.292870811E0,9.703995705E0,6.727912426E-1,-3.064671755E-1
1.294875277E0,9.416683197E0,4.788549542E-1,-2.801301479E-1
1.296876577E0,9.155706406E0,3.064671755E-1,-2.226675600E-1
1.298877643E0,9.028810501E0,2.083019018E-1,-2.106961906E-1
1.300879009E0,8.801354408E0,3.112557158E-2,-1.197137386E-1
1.302880342E0,8.588263512E0,-1.628106833E-1,-4.549122229E-2
1.304881675E0,8.473338127E0,-2.394274771E-1,2.394274808E-3
1.306883041E0,8.279402733E0,-3.998439014E-1,9.577099234E-2
1.308884374E0,8.111803055E0,-5.865973234E-1,2.370332032E-1
1.310885707E0,8.018425941E0,-6.775797606E-1,2.944957912E-1
1.312887073E0,7.867587090E0,-8.332076073E-1,4.070267081E-1
1.314888406E0,7.788576126E0,-9.074301720E-1,4.453351200E-1
1.316889772E0,7.654496670E0,-1.060663700E0,5.602602959E-1
1.318891138E0,7.525205612E0,-1.245022893E0,6.536370516E-1
1.320892471E0,7.458166122E0,-1.328822494E0,6.895511150E-1
1.322894537E0,7.336058140E0,-1.474873304E0,7.853221297E-1
1.324895837E0,7.204372883E0,-1.606558442E0,8.403904438E-1
1.326897170E0,7.158881664E0,-1.685569525E0,8.523618579E-1
1.328898536E0,7.070293427E0,-1.802888989E0,8.882759809E-1
1.330899869E0,6.988888264E0,-1.929785490E0,9.217957854E-1
1.332901202E0,6.948185444E0,-1.989642382E0,9.337671995E-1
1.334902602E0,6.859597206E0,-2.083019018E0,9.529213905E-1
1.336903968E0,6.799740314E0,-2.178790092E0,9.553156495E-1
1.338905334E0,6.737489223E0,-2.257801056E0,9.648927450E-1
1.342902300E0,6.668055534E0,-2.305686712E0,9.553156495E-1
1.344903666E0,6.603409767E0,-2.346389294E0,9.648927450E-1
1.346904799E0,6.577073097E0,-2.365543604E0,9.792584181E-1
1.348906432E0,6.543552876E0,-2.377514839E0,9.840469360E-1
1.350907732E0,6.517216206E0,-2.408640385E0,9.960182905E-1
1.352909065E0,6.486090660E0,-2.423006058E0,1.019961119E0
1.356908598E0,6.486090660E0,-2.396669149E0,1.041509509E0
1.358910198E0,6.498061657E0,-2.332023621E0,1.072635174E0
1.360911531E0,6.524398804E0,-2.300898075E0,1.065452337E0
1.362912864E0,6.569890022E0,-2.248224020E0,1.087000728E0
1.364914264E0,6.615381241E0,-2.207521439E0,1.108549237E0
1.366915597E0,6.651295185E0,-2.080624819E0,1.158828974E0
1.368916930E0,6.754249096E0,-1.975276709E0,1.206714511E0
1.370918296E0,6.797346115E0,-1.908236980E0,1.247417212E0
1.372919629E0,6.883540154E0,-1.810071707E0,1.283331275E0
1.374920995E0,7.005648136E0,-1.671203852E0,1.350371003E0
1.376922361E0,7.053533554E0,-1.601769805E0,1.374313712E0
1.378923661E0,7.151699066E0,-1.467690468E0,1.443747759E0
1.380924994E0,7.261835575E0,-1.304879785E0,1.482056141E0
1.382925627E0,7.333663940E0,-1.228263021E0,1.532335877E0
1.384926960E0,7.441406250E0,-1.096577883E0,1.568249941E0
1.386928293E0,7.484503269E0,-9.601042271E-1,1.606558442E0
1.388929626E0,7.556331158E0,-8.978530765E-1,1.661626697E0
1.390930659E0,7.623371124E0,-7.901107073E-1,1.687963724E0
1.392932025E0,7.652102470E0,-7.470137477E-1,1.711906433E0
1.394933325E0,7.699987888E0,-6.727912426E-1,1.695146561E0
1.396934925E0,7.769421577E0,-5.746259689E-1,1.721483588E0
1.398936258E0,7.858009815E0,-4.620950520E-1,1.719089270E0
1.400937591E0,7.901106834E0,-4.237866402E-1,1.714300752E0
1.402939157E0,7.956175327E0,-3.160442710E-1,1.719089270E0
1.404940523E0,7.958569527E0,-2.585816681E-1,1.699935079E0
1.406941856E0,7.977723598E0,-1.699935049E-1,1.685569525E0
1.408943189E0,7.963357925E0,-8.379961550E-2,1.668809533E0
1.410944289E0,7.953781128E0,-5.267404765E-2,1.625712633E0
1.412945655E0,7.915472507E0,1.915419847E-2,1.553884387E0
1.414946955E0,7.898712635E0,4.070267081E-2,1.534730196E0
1.416948655E0,7.850827217E0,8.619388938E-2,1.486844659E0
1.418949988E0,7.829278469E0,1.628106833E-1,1.426987767E0
1.420951154E0,7.802941799E0,2.011190802E-1,1.415016413E0
1.422952554E0,7.762238979E0,2.418217510E-1,1.364736676E0
1.424953887E0,7.685622215E0,2.825244367E-1,1.326428294E0
1.426955920E0,7.671256542E0,2.873129845E-1,1.285725594E0
1.428957286E0,7.632947922E0,3.064671755E-1,1.268965602E0
1.430958619E0,7.616188049E0,2.921015322E-1,1.233051538E0
1.432959952E0,7.632947922E0,2.825244367E-1,1.221080184E0
1.434961318E0,7.635342598E0,2.873129845E-1,1.206714511E0
1.436962651E0,7.640130997E0,3.232271075E-1,1.199531674E0
1.438964017E0,7.647313595E0,3.112557232E-1,1.192348838E0
1.440965350E0,7.652102470E0,2.968900800E-1,1.177983165E0
1.442966650E0,7.654496670E0,2.849186957E-1,1.170800328E0
1.444968350E0,7.673650742E0,2.394274771E-1,1.177983165E0
1.446969716E0,7.644919395E0,1.915419847E-1,1.180377483E0
1.448971016E0,7.647313595E0,1.604164094E-1,1.175588965E0
1.450972649E0,7.635342598E0,1.173194647E-1,1.192348838E0
1.452974015E0,7.640130997E0,7.661679387E-2,1.209108829E0
1.454975381E0,7.628159523E0,4.549122229E-2,1.209108829E0
1.456976447E0,7.616188049E0,-7.182824425E-3,1.204320192E0
1.458984713E0,7.606611252E0,-8.379961550E-2,1.233051538E0
1.460986046E0,7.618582249E0,-1.316851079E-1,1.249811411E0
1.462987412E0,7.609005451E0,-2.083019018E-1,1.278542757E0
1.464988745E0,7.609005451E0,-2.490045726E-1,1.316851139E0
1.466990078E0,7.623371124E0,-3.280156553E-1,1.364736676E0
1.468991444E0,7.644919395E0,-4.046324492E-1,1.438959122E0
1.470993077E0,7.644919395E0,-4.405465722E-1,1.465296149E0
1.472994410E0,7.668862343E0,-5.267404318E-1,1.532335877E0
1.474995776E0,7.704776287E0,-5.889915824E-1,1.565855742E0
1.476996809E0,7.704776287E0,-6.249057055E-1,1.589798450E0
1.478998175E0,7.731113434E0,-7.015225291E-1,1.661626697E0
1.480999708E0,7.740690231E0,-7.757450342E-1,1.709512234E0
1.483001708E0,7.752661705E0,-8.044763207E-1,1.750214934E0
1.485003041E0,7.771816254E0,-8.523618579E-1,1.817254543E0
1.487003707E0,7.776604652E0,-8.715160489E-1,1.869928598E0
1.489005040E0,7.769421577E0,-9.313728809E-1,1.924996972E0
1.491006106E0,7.786181450E0,-9.864411950E-1,2.020767927E0
1.493007472E0,7.781393051E0,-9.936240315E-1,2.078230619E0
1.495008805E0,7.783787251E0,-1.010383964E0,2.157241583E0
1.497010838E0,7.764633179E0,-1.017566800E0,2.217098475E0
1.499012204E0,7.778998852E0,-1.012778282E0,2.243435383E0
1.501013537E0,7.774210453E0,-1.034326673E0,2.303292274E0
1.503014903E0,7.836461544E0,-1.058269501E0,2.389486313E0
1.505015903E0,7.843644142E0,-1.065452337E0,2.406246185E0
1.507017203E0,7.886741161E0,-1.072635174E0,2.461314440E0
1.509023969E0,7.927443981E0,-1.067846537E0,2.518777132E0
1.511025335E0,7.944203854E0,-1.082212210E0,2.537931204E0
1.513027368E0,8.004060745E0,-1.077423692E0,2.600182533E0
1.515028701E0,8.025609016E0,-1.072635174E0,2.602576733E0
1.517030067E0,8.061523438E0,-1.065452337E0,2.600182533E0
1.521025833E0,8.133351326E0,-1.012778282E0,2.547508478E0
1.523027199E0,8.190814018E0,-9.840469360E-1,2.499622822E0
1.525028532E0,8.243488312E0,-9.481328130E-1,2.449343204E0
1.527029898E0,8.255459785E0,-9.457385540E-1,2.437371731E0
1.529031198E0,8.269824982E0,-9.194015265E-1,2.394274712E0
1.531032531E0,8.298556328E0,-8.763045669E-1,2.334417820E0
1.533033864E0,8.298556328E0,-8.547561169E-1,2.298503876E0
1.535035197E0,8.324893951E0,-8.308133483E-1,2.212309837E0
1.537036563E0,8.324893951E0,-8.068706393E-1,2.193155766E0
1.539037929E0,8.332076073E0,-8.020820618E-1,2.140481710E0
1.541039229E0,8.351230621E0,-7.853221297E-1,2.056682110E0
1.543039862E0,8.375173569E0,-7.996878028E-1,2.037527800E0
1.545042795E0,8.382355690E0,-7.925049663E-1,1.968093872E0
1.547044095E0,8.423058510E0,-7.996878028E-1,1.901054144E0
1.549045395E0,8.468549728E0,-8.020820618E-1,1.872322917E0
1.551047028E0,8.494887352E0,-8.499675393E-1,1.774157643E0
1.553048361E0,8.554743767E0,-8.834874034E-1,1.702329397E0
1.555049661E0,8.583475113E0,-9.217957854E-1,1.654443860E0
1.557050327E0,8.640937805E0,-9.984126091E-1,1.541913033E0
1.559051627E0,8.664880753E0,-1.070240855E0,1.503604531E0
1.561052993E0,8.743891716E0,-1.115732074E0,1.383890867E0
1.563054359E0,8.801354408E0,-1.221080184E0,1.295302629E0
1.565055725E0,8.827691078E0,-1.276148438E0,1.264177084E0
1.567057091E0,8.885153770E0,-1.393467903E0,1.199531674E0
1.571054390E0,8.959376335E0,-1.575432777E0,1.166011810E0
1.573054723E0,9.012050629E0,-1.683175206E0,1.115732074E0
1.575056089E0,9.071907043E0,-1.810071707E0,1.089395046E0
1.577057389E0,9.076695442E0,-1.869928598E0,1.067846537E0
1.579058689E0,9.110215187E0,-1.996825218E0,1.089395046E0
1.581060055E0,9.155706406E0,-2.087807655E0,1.101366401E0
1.583061388E0,9.179649353E0,-2.147664547E0,1.113337755E0
1.585062688E0,9.225140572E0,-2.209915638E0,1.122914910E0
1.587064021E0,9.232323647E0,-2.233858347E0,1.151646137E0
1.589065354E0,9.263449669E0,-2.267378330E0,1.201925993E0
1.591066687E0,9.299363136E0,-2.293715239E0,1.256994247E0
1.593068053E0,9.304151535E0,-2.274561167E0,1.280937076E0
1.595069419E0,9.347249031E0,-2.245829821E0,1.374313712E0
1.597070752E0,9.419076920E0,-2.195549965E0,1.484450340E0
1.599071818E0,9.416683197E0,-2.159635782E0,1.546701550E0
1.601073184E0,9.512454033E0,-2.044710636E0,1.699935079E0
1.603074550E0,9.591464996E0,-1.908236980E0,1.869928598E0
1.607075682E0,9.756669998E0,-1.589798450E0,2.205127001E0
1.609077082E0,9.806949615E0,-1.450930476E0,2.355966330E0
1.611078415E0,9.929058075E0,-1.218685865E0,2.693559170E0
1.613079715E0,1.007032013E1,-9.409499764E-1,3.079037428E0
1.615080981E0,1.015651417E1,-7.996878028E-1,3.282550812E0
1.617082314E0,1.032171917E1,-4.525179267E-1,3.727885962E0
1.619083680E0,1.053480911E1,-8.379961550E-2,4.197163582E0
1.621085046E0,1.066409969E1,8.379961550E-2,4.429408550E0
1.623086379E0,1.100408745E1,4.405465722E-1,4.872349262E0
1.625087712E0,1.144702816E1,8.332076073E-1,5.308107376E0
1.627089045E0,1.171039772E1,1.031932473E0,5.497254848E0
1.629090378E0,1.234727478E1,1.393467903E0,5.786962032E0
1.631091678E0,1.312780857E1,1.726272106E0,5.885127544E0
1.633093344E0,1.354680729E1,1.891477108E0,6.004841328E0
1.635095377E0,1.440874577E1,2.243435383E0,6.004841328E0
1.637097443E0,1.479183006E1,2.418217659E0,5.935407162E0
1.639098843E0,1.571123123E1,2.691164970E0,5.779779434E0
1.641100176E0,1.670485497E1,2.652856588E0,5.509226322E0
1.643101509E0,1.719807625E1,2.590605259E0,5.320078850E0
1.645103375E0,1.810550690E1,2.226675510E0,4.834040642E0
1.647104741E0,1.867773819E1,1.927391171E0,4.264203548E0
1.649106807E0,1.881660652E1,1.805283189E0,3.984073162E0
1.651108140E0,1.884533691E1,1.482056141E0,3.435784340E0
1.653109473E0,1.868252563E1,1.125309110E0,2.820455790E0
1.655110806E0,1.861548615E1,1.010383964E0,2.478074312E0
1.657112139E0,1.847183037E1,8.403904438E-1,1.738243461E0
1.659113739E0,1.841197395E1,7.877163887E-1,1.357553840E0
1.661115072E0,1.835211563E1,7.565908432E-1,6.775797606E-1
1.663116438E0,1.830183601E1,7.589851022E-1,2.154847234E-2
1.665117738E0,1.826352882E1,7.757450342E-1,-2.322446555E-1
1.667119071E0,1.804086113E1,8.116591573E-1,-6.727912426E-1
1.669120404E0,1.746623421E1,8.356019258E-1,-9.026415944E-1
1.671122437E0,1.702329445E1,8.427847624E-1,-1.017566800E0
1.673123803E0,1.602967072E1,9.074301720E-1,-1.125309110E0
1.675125269E0,1.502886295E1,9.337671995E-1,-1.079817891E0
1.677126602E0,1.462183666E1,9.529213905E-1,-1.024749637E0
1.679127935E0,1.388439941E1,9.672870040E-1,-7.877163887E-1
1.681129268E0,1.357074928E1,9.577099085E-1,-6.296942830E-1
1.683130601E0,1.305598068E1,9.553156495E-1,-3.040728867E-1
1.685131967E0,1.266810799E1,9.385557175E-1,0.000000000E0
1.687133300E0,1.249811459E1,9.409499764E-1,1.508393139E-1
1.689135333E0,1.222995567E1,9.648927450E-1,4.692778587E-1
1.691137433E0,1.202644253E1,1.005595446E0,7.494080067E-1
1.693138766E0,1.194024849E1,1.053480864E0,8.739103079E-1
1.695139399E0,1.183250618E1,1.132491946E0,1.065452337E0
1.697140065E0,1.175828362E1,1.230657220E0,1.209108829E0
1.699141398E0,1.172955227E1,1.316851139E0,1.285725594E0
1.701142698E0,1.173194695E1,1.362342358E0,1.276148438E0
1.703144064E0,1.176786041E1,1.419804931E0,1.283331275E0
1.705144897E0,1.179898643E1,1.460507631E0,1.285725594E0
1.707146230E0,1.183011150E1,1.508393168E0,1.218685865E0
1.709146896E0,1.184687138E1,1.534730196E0,1.185166001E0
1.711148262E0,1.185884285E1,1.551490068E0,1.130097747E0
1.713149562E0,1.180856323E1,1.577827096E0,1.058269501E0
1.715150628E0,1.177264881E1,1.580221415E0,1.029538155E0
1.717151994E0,1.168406105E1,1.544307232E0,9.768640995E-1
1.719153327E0,1.156434727E1,1.525153041E0,9.481328130E-1
1.721154660E0,1.150688457E1,1.491633177E0,9.122186899E-1
1.723155960E0,1.134646797E1,1.443747759E0,8.427847624E-1
1.725157326E0,1.115013790E1,1.388679385E0,7.996878028E-1
1.727158692E0,1.106394386E1,1.347976685E0,7.925049663E-1
1.729160025E0,1.086043072E1,1.328822494E0,7.661679387E-1
1.731160658E0,1.075268841E1,1.302485466E0,7.350423932E-1
1.733161991E0,1.052044392E1,1.302485466E0,6.871568561E-1
1.735163357E0,1.029777622E1,1.300091267E0,6.488484740E-1
1.737164690E0,1.018524456E1,1.309668303E0,6.225114465E-1
1.739166056E0,9.967366219E0,1.359948039E0,5.650488734E-1
1.741167356E0,9.766246796E0,1.417410731E0,4.956148863E-1
1.743168689E0,9.665687561E0,1.460507631E0,4.381522834E-1
1.745169989E0,9.454991341E0,1.544307232E0,3.447755575E-1
1.747171355E0,9.325700760E0,1.649655342E0,2.490045726E-1
1.749172021E0,9.232323647E0,1.683175206E0,1.915419847E-1
1.751172654E0,9.091061592E0,1.812466025E0,5.985686928E-2
1.753173987E0,8.959376335E0,1.927391171E0,-3.112557158E-2
1.755175353E0,8.906702042E0,1.984853864E0,-1.819648892E-1
1.757176686E0,8.777411461E0,2.097384691E0,-3.591412306E-1
1.759177986E0,8.669669151E0,2.207521439E0,-5.219519138E-1
1.761179352E0,8.621783257E0,2.264983892E0,-6.057515144E-1
1.763180685E0,8.509252548E0,2.358360767E0,-7.422251701E-1
1.765182051E0,8.435029984E0,2.418217659E0,-8.308133483E-1
1.767183417E0,8.272219658E0,2.525959969E0,-9.433442950E-1
1.769184717E0,8.109408379E0,2.621730804E0,-1.046298146E0
1.771186750E0,8.020820618E0,2.676799297E0,-1.113337755E0
1.773188150E0,7.869981289E0,2.762993097E0,-1.170800328E0
1.775189783E0,7.704776287E0,2.820455790E0,-1.206714511E0
1.777191116E0,7.625765324E0,2.849187136E0,-1.221080184E0
1.779192449E0,7.506051540E0,2.882706881E0,-1.235445857E0
1.781193815E0,7.417463303E0,2.909043789E0,-1.216291547E0
1.783195181E0,7.278595448E0,2.935380936E0,-1.161223292E0
1.785196514E0,7.156487465E0,2.964112282E0,-1.106154919E0
1.787197847E0,7.087053299E0,2.954535007E0,-1.075029373E0
1.789199180E0,6.967339516E0,2.961717844E0,-1.015172482E0
1.791200513E0,6.869174480E0,2.954535007E0,-9.720755816E-1
1.793201846E0,6.830865860E0,2.952140808E0,-9.409499764E-1
1.795203146E0,6.725517750E0,2.906649590E0,-8.930644989E-1
1.797204212E0,6.684815407E0,2.885101080E0,-8.667274714E-1
1.799205545E0,6.680026531E0,2.849187136E0,-8.403904438E-1
1.801206911E0,6.713546753E0,2.779752970E0,-7.877163887E-1
1.803208277E0,6.790163517E0,2.693559170E0,-7.709565163E-1
1.805209610E0,6.861991405E0,2.636096478E0,-6.967339516E-1
1.807210943E0,7.034379482E0,2.530748367E0,-6.177229285E-1
1.809213276E0,7.127756119E0,2.454131603E0,-5.794144869E-1
1.811214609E0,7.348029613E0,2.341600657E0,-4.836435020E-1
1.813215942E0,7.613793850E0,2.159635782E0,-3.998439014E-1
1.815217242E0,7.728719234E0,2.063864946E0,-3.304099143E-1
1.817218575E0,7.996877670E0,1.865140080E0,-2.585816681E-1
1.819219975E0,8.310527802E0,1.635289669E0,-1.723877788E-1
1.821221341E0,8.473338127E0,1.522758722E0,-1.173194647E-1
1.823222674E0,8.820508003E0,1.261782765E0,-3.830839694E-2
1.825224040E0,9.177255630E0,1.015172482E0,7.901106775E-2
1.827225373E0,9.342460632E0,8.763045669E-1,1.364736706E-1
1.829226739E0,9.718361855E0,6.009629965E-1,2.609759569E-1
1.831227405E0,9.881172180E0,4.836435020E-1,3.280156553E-1
1.833228738E0,1.025228500E1,2.083019018E-1,4.812492430E-1
1.835230071E0,1.062818623E1,-4.549122229E-2,6.416656375E-1
1.837231437E0,1.080536175E1,-1.699935049E-1,7.206767201E-1
1.839232803E0,1.114774323E1,-4.429408312E-1,8.858816624E-1
1.841234836E0,1.148294163E1,-6.871568561E-1,1.084606528E0
1.843236169E0,1.163617516E1,-8.140534163E-1,1.168406129E0
1.845237535E0,1.188278580E1,-1.055875182E0,1.321639657E0
1.847238835E0,1.209108734E1,-1.307274103E0,1.448536277E0
1.849240201E0,1.219404125E1,-1.417410731E0,1.508393168E0
1.851241534E0,1.235206413E1,-1.659232497E0,1.613741279E0
1.853242867E0,1.237840080E1,-1.886688590E0,1.664021015E0
1.855244233E0,1.242149734E1,-1.996825218E0,1.687963724E0
1.857245866E0,1.236164093E1,-2.162030220E0,1.716695070E0
1.859247899E0,1.230417824E1,-2.262589693E0,1.699935079E0
1.861249265E0,1.213179016E1,-2.394274712E0,1.635289669E0
1.863250598E0,1.188996887E1,-2.480468750E0,1.537124395E0
1.865251964E0,1.176546669E1,-2.516382933E0,1.477267504E0
1.867253330E0,1.145660496E1,-2.525959969E0,1.364736676E0
1.869253763E0,1.113816643E1,-2.506805658E0,1.230657220E0
1.871255096E0,1.097296143E1,-2.509200096E0,1.170800328E0
1.873256462E0,1.066649437E1,-2.423006058E0,1.101366401E0
1.875257795E0,1.042706680E1,-2.322446585E0,1.046298146E0
1.877259861E0,1.029059315E1,-2.262589693E0,1.022355318E0
1.879261194E0,1.006313705E1,-2.126116037E0,1.017566800E0
1.881262527E0,9.972154617E0,-2.035133600E0,1.010383964E0
1.883263860E0,9.785401344E0,-1.867534399E0,1.007989645E0
1.885265160E0,9.615407944E0,-1.666415215E0,9.888355136E-1
1.887266460E0,9.538790703E0,-1.570644259E0,1.010383964E0
1.889267493E0,9.347249031E0,-1.359948039E0,1.046298146E0
1.891268793E0,9.167677879E0,-1.156434774E0,1.103760719E0
1.893269926E0,9.088666916E0,-1.060663700E0,1.146857619E0
1.895271292E0,8.954587936E0,-8.763045669E-1,1.237840056E0
1.897275158E0,8.798959732E0,-7.063110471E-1,1.331216812E0
1.899276491E0,8.724737167E0,-5.913859010E-1,1.388679385E0
1.901277157E0,8.583475113E0,-4.309694767E-1,1.482056141E0
1.903278490E0,8.514040947E0,-3.519583941E-1,1.537124395E0
1.905279823E0,8.384750366E0,-1.723877788E-1,1.611346960E0
1.907281023E0,8.229122162E0,-2.873129770E-2,1.687963724E0
1.909282356E0,8.183630943E0,3.591412306E-2,1.699935079E0
1.911283722E0,8.063917160E0,1.675992310E-1,1.743032098E0
1.913285088E0,7.958569527E0,3.184385598E-1,1.781340480E0
1.915286421E0,7.886741161E0,3.830839694E-1,1.793311834E0
1.917287754E0,7.776604652E0,5.004034638E-1,1.786128998E0
1.919288420E0,7.683228016E0,6.105400920E-1,1.778946161E0
1.921289720E0,7.616188049E0,6.536370516E-1,1.764580488E0
1.923290853E0,7.518023014E0,7.781392932E-1,1.728666425E0
1.925292219E0,7.429434776E0,8.667274714E-1,1.704723716E0
1.927293519E0,7.393520832E0,9.146129489E-1,1.661626697E0
1.929294752E0,7.316903591E0,9.960182905E-1,1.618529797E0
1.931296118E0,7.297749519E0,1.024749637E0,1.601769805E0
1.933297418E0,7.199584484E0,1.108549237E0,1.577827096E0
1.935298784E0,7.125361919E0,1.151646137E0,1.544307232E0
1.937299417E0,7.099024773E0,1.173194647E0,1.546701550E0
1.939300750E0,7.036773682E0,1.223474383E0,1.510787368E0
1.941302083E0,6.981705189E0,1.268965602E0,1.489238977E0
1.943303449E0,6.938608170E0,1.285725594E0,1.491633177E0
1.945304815E0,6.909877300E0,1.321639657E0,1.484450340E0
1.947306181E0,6.876357079E0,1.316851139E0,1.496421814E0
1.949307847E0,6.876357079E0,1.331216812E0,1.501210332E0
1.951309080E0,6.838048935E0,1.338399649E0,1.515576005E0
1.953310913E0,6.818894863E0,1.345582485E0,1.522758722E0
1.955312246E0,6.785374641E0,1.355159521E0,1.525153041E0
1.959312412E0,6.751854897E0,1.350371003E0,1.568249941E0
1.961313712E0,6.749460697E0,1.350371003E0,1.599375606E0
1.963315078E0,6.771008968E0,1.321639657E0,1.625712633E0
1.965316444E0,6.773403645E0,1.304879785E0,1.647261024E0
1.967317977E0,6.802134514E0,1.300091267E0,1.697540879E0
1.969319043E0,6.835654736E0,1.276148438E0,1.728666425E0
1.971320409E0,6.866780281E0,1.273754239E0,1.759791970E0
1.973321775E0,6.893116951E0,1.218685865E0,1.795706153E0
1.975323108E0,6.926637173E0,1.187560320E0,1.807677507E0
1.977324474E0,6.998465061E0,1.142069101E0,1.843591571E0
1.979325774E0,7.072687626E0,1.072635174E0,1.860351562E0
1.981327140E0,7.096630573E0,1.043903828E0,1.869928598E0
1.983328706E0,7.182824612E0,9.912297726E-1,1.884294271E0
1.985330006E0,7.252258301E0,9.313728809E-1,1.905842781E0
1.987331372E0,7.280989647E0,8.882759809E-1,1.920208454E0
1.989332738E0,7.357606411E0,8.451790214E-1,1.898659945E0
1.991334071E0,7.417463303E0,7.541965842E-1,1.913025618E0
1.993335404E0,7.460560322E0,7.230709791E-1,1.901054144E0
1.995336737E0,7.527599812E0,6.416656375E-1,1.872322917E0
1.997338070E0,7.594639778E0,5.794144869E-1,1.872322917E0
1.999339136E0,7.659285069E0,5.004034638E-1,1.874717116E0
2.001344902E0,7.688016415E0,4.597007632E-1,1.855562925E0
2.003346235E0,7.726325035E0,4.022381604E-1,1.865140080E0
2.005347568E0,7.767027378E0,3.351984620E-1,1.860351562E0
2.007348934E0,7.829278469E0,2.513988614E-1,1.857957244E0
2.009350234E0,7.831672668E0,2.130904645E-1,1.853168726E0
2.011351667E0,7.843644142E0,1.412622184E-1,1.838803053E0
2.013352700E0,7.846038342E0,7.901106775E-2,1.843591571E0
2.015355066E0,7.846038342E0,4.788549617E-2,1.834014535E0
2.017356399E0,7.843644142E0,4.788549617E-3,1.829225898E0
2.019357465E0,7.843644142E0,-4.309694469E-2,1.812466025E0
2.021358831E0,7.841249943E0,-7.422251999E-2,1.807677507E0
2.023360164E0,7.841249943E0,-1.077423692E-1,1.814860344E0
2.025361497E0,7.829278469E0,-1.268965602E-1,1.800494671E0
2.027362797E0,7.836461544E0,-1.747820675E-1,1.783734679E0
2.029365630E0,7.838855743E0,-2.226675600E-1,1.769369125E0
2.031366963E0,7.826884270E0,-2.346389294E-1,1.769369125E0
2.033368296E0,7.838855743E0,-2.801301479E-1,1.757397652E0
2.035369662E0,7.819701672E0,-2.801301479E-1,1.771763325E0
2.037370995E0,7.826884270E0,-2.921015322E-1,1.750214934E0
2.039372328E0,7.829278469E0,-3.064671755E-1,1.764580488E0
2.041373694E0,7.805335999E0,-3.399870098E-1,1.766974807E0
2.043374994E0,7.807730198E0,-3.304099143E-1,1.774157643E0
2.045376360E0,7.793364525E0,-3.232271075E-1,1.781340480E0
2.047377726E0,7.798152924E0,-3.208328187E-1,1.769369125E0
2.049379759E0,7.795758724E0,-3.375927508E-1,1.774157643E0
2.051381092E0,7.781393051E0,-3.375927508E-1,1.771763325E0
2.053382492E0,7.776604652E0,-3.375927508E-1,1.783734679E0
2.055383858E0,7.771816254E0,-3.328042030E-1,1.759791970E0
2.057385891E0,7.714353561E0,-3.232271075E-1,1.740637779E0
2.059387491E0,7.688016415E0,-3.064671755E-1,1.707117915E0
2.063385757E0,7.640130997E0,-3.088614643E-1,1.704723716E0
2.065388257E0,7.632947922E0,-3.040728867E-1,1.690358043E0
2.067389323E0,7.609005451E0,-2.992843390E-1,1.649655342E0
2.069390689E0,7.594639778E0,-2.921015322E-1,1.628106833E0
2.071392089E0,7.573091030E0,-2.944957912E-1,1.625712633E0
2.073393455E0,7.570696831E0,-2.897072434E-1,1.599375606E0
2.075393755E0,7.568302631E0,-2.849186957E-1,1.585009933E0
2.077395121E0,7.561120033E0,-2.633702159E-1,1.561067224E0
2.079396687E0,7.546754360E0,-2.633702159E-1,1.517970204E0
2.081397987E0,7.541965485E0,-2.490045726E-1,1.517970204E0
2.083399353E0,7.541965485E0,-2.418217510E-1,1.517970204E0
2.085400653E0,7.537177086E0,-2.250618339E-1,1.522758722E0
2.087402019E0,7.539571285E0,-2.202732861E-1,1.527547359E0
2.089402152E0,7.565908432E0,-2.130904645E-1,1.565855742E0
2.091403452E0,7.592245579E0,-2.011190802E-1,1.580221415E0
2.093404785E0,7.594639778E0,-1.987248063E-1,1.592192769E0
2.095406118E0,7.620976925E0,-2.298503816E-1,1.606558442E0
2.097407418E0,7.620976925E0,-2.154847383E-1,1.635289669E0
2.099408484E0,7.647313595E0,-2.059076279E-1,1.664021015E0
2.101409817E0,7.678439140E0,-1.939362586E-1,1.690358043E0
2.103411150E0,7.704776287E0,-2.106961906E-1,1.702329397E0
2.105412216E0,7.738296032E0,-1.987248063E-1,1.755003452E0
2.107413549E0,7.757450581E0,-1.843591630E-1,1.788523316E0
2.109414882E0,7.776604652E0,-1.771763414E-1,1.786128998E0
2.111416215E0,7.795758724E0,-1.771763414E-1,1.800494671E0
2.113417548E0,7.848433018E0,-1.556278616E-1,1.802888989E0
2.115418881E0,7.889135361E0,-1.580221355E-1,1.824437380E0
2.117419747E0,7.925049782E0,-1.604164094E-1,1.810071707E0
2.119421113E0,8.011243820E0,-1.508393139E-1,1.817254543E0
2.121422179E0,8.059128761E0,-1.508393139E-1,1.817254543E0
2.123423812E0,8.130957603E0,-1.652049571E-1,1.845985889E0
2.125424012E0,8.162082672E0,-1.699935049E-1,1.860351562E0
2.127425612E0,8.236305237E0,-1.628106833E-1,1.869928598E0
2.129426978E0,8.315316200E0,-1.508393139E-1,1.872322917E0
2.131428311E0,8.360807419E0,-1.221080124E-1,1.879505754E0
2.133429644E0,8.463761330E0,-9.577099234E-2,1.908236980E0
2.135430977E0,8.578686714E0,-7.901106775E-2,1.934574008E0
2.137432677E0,8.636149406E0,-8.140534163E-2,1.944151163E0
2.139434043E0,8.763046265E0,-6.225114316E-2,1.968093872E0
2.141435443E0,8.928250313E0,-4.788549617E-2,2.001613855E0
2.143436743E0,9.019232750E0,-4.549122229E-2,2.013585091E0
2.145438109E0,9.162889481E0,-1.675992459E-2,2.071047783E0
2.147439475E0,9.251478195E0,1.436564885E-2,2.094990492E0
2.149440808E0,9.411893845E0,4.788549617E-2,2.138087511E0
2.151442141E0,9.620196342E0,7.422251999E-2,2.193155766E0
2.153443507E0,9.732727051E0,1.005595401E-1,2.231464148E0
2.155444840E0,9.931451797E0,1.532335877E-1,2.308080912E0
2.157446206E0,1.016609097E1,2.035133541E-1,2.389486313E0
2.159447872E0,1.028819847E1,2.442160249E-1,2.432583094E0
2.161449205E0,1.054917526E1,3.040728867E-1,2.530748367E0
2.163450571E0,1.077663136E1,3.806896806E-1,2.650462151E0
2.165452171E0,1.089873886E1,4.285751879E-1,2.710319042E0
2.167453504E0,1.112619495E1,4.980091453E-1,2.830032825E0
2.169454137E0,1.138477707E1,5.842030644E-1,2.956929445E0
2.171455237E0,1.149970150E1,6.416656375E-1,3.033546209E0
2.173456570E0,1.175588894E1,7.278595567E-1,3.167625666E0
2.175457936E0,1.187560272E1,7.589851022E-1,3.244242430E0
2.177459069E0,1.212221336E1,8.475732803E-1,3.421418667E0
2.179460369E0,1.237840080E1,9.050358534E-1,3.624932051E0
2.181461735E0,1.251966286E1,9.409499764E-1,3.711125851E0
2.183463035E0,1.279021645E1,1.000806928E0,3.897879362E0
2.185464368E0,1.305598068E1,1.031932473E0,4.065478802E0
2.187465734E0,1.320203114E1,1.029538155E0,4.134912491E0
2.189467034E0,1.347258472E1,1.067846537E0,4.288146019E0
2.191468334E0,1.379581165E1,1.103760719E0,4.441379547E0
2.193469667E0,1.397538185E1,1.108549237E0,4.517996788E0
2.195471000E0,1.440635109E1,1.130097747E0,4.608979225E0
2.197471933E0,1.464099026E1,1.125309110E0,4.625739098E0
2.199473266E0,1.519167328E1,1.055875182E0,4.553910732E0
2.201474566E0,1.590995598E1,9.361614585E-1,4.350397110E0
2.203475899E0,1.628346252E1,8.858816624E-1,4.228289127E0
2.205477232E0,1.707836151E1,7.589851022E-1,3.950553417E0
2.207478532E0,1.780861664E1,6.440598965E-1,3.646480560E0
2.209479832E0,1.813184357E1,5.961744189E-1,3.498035431E0
2.211481198E0,1.868492126E1,4.956148863E-1,3.143682718E0
2.213482498E0,1.910870743E1,4.261809289E-1,2.784541607E0
2.215483798E0,1.925236320E1,4.189980924E-1,2.602576733E0
2.217485164E0,1.940080833E1,3.687183261E-1,2.183578730E0
2.219486497E0,1.936250114E1,3.423812985E-1,1.972882390E0
2.221487830E0,1.925954628E1,3.232271075E-1,1.419804931E0
2.223489196E0,1.901533127E1,2.657645047E-1,8.643332124E-1
2.225490562E0,1.886449051E1,9.577099234E-2,2.753416002E-1
2.227491895E0,1.880224037E1,-4.788549617E-3,-2.154847234E-2
2.229493261E0,1.854126358E1,-2.490045726E-1,-5.291347504E-1
2.231494827E0,1.828507614E1,-3.519583941E-1,-7.350423932E-1
2.233496160E0,1.753327370E1,-6.129343510E-1,-1.101366401E0
2.235497493E0,1.666175842E1,-8.379961848E-1,-1.525153041E0
2.237498559E0,1.620923996E1,-9.122186899E-1,-1.719089270E0
2.239499925E0,1.526589584E1,-1.010383964E0,-2.008796453E0
2.241501258E0,1.451648808E1,-1.118126392E0,-2.071047783E0
2.243502758E0,1.416931820E1,-1.156434774E0,-2.068653345E0
2.245504124E0,1.359229851E1,-1.235445857E0,-1.965699673E0
2.247505457E0,1.336005306E1,-1.252205729E0,-1.891477108E0
2.249506823E0,1.300809479E1,-1.288119793E0,-1.747820616E0
2.251508223E0,1.272557068E1,-1.273754239E0,-1.599375606E0
2.253509589E0,1.258670235E1,-1.264177084E0,-1.529941559E0
2.255510922E0,1.236882401E1,-1.228263021E0,-1.364736676E0
2.257512322E0,1.216291618E1,-1.156434774E0,-1.175588965E0
2.259513688E0,1.207911682E1,-1.122914910E0,-1.063058019E0
2.261515021E0,1.188518047E1,-1.015172482E0,-8.308133483E-1
2.263516421E0,1.171279240E1,-9.170072675E-1,-5.865973234E-1
2.265517787E0,1.163856983E1,-8.595446348E-1,-4.501236677E-1
2.267519153E0,1.145660496E1,-7.326480746E-1,-1.819648892E-1
2.269521053E0,1.137998772E1,-6.344828010E-1,-6.464541703E-2
2.271522419E0,1.124112034E1,-6.033572555E-1,1.867534369E-1
2.273523785E0,1.109028053E1,-4.980091453E-1,4.716721475E-1
2.275525185E0,1.102084732E1,-4.597007632E-1,6.249057055E-1
2.277526485E0,1.087479591E1,-3.878725171E-1,9.074301720E-1
2.279527818E0,1.075747681E1,-3.543526828E-1,1.213897347E0
2.281529184E0,1.071198559E1,-3.351984620E-1,1.391073704E0
2.283530517E0,1.058030033E1,-3.064671755E-1,1.704723716E0
2.285531850E0,1.047974110E1,-2.849186957E-1,2.020767927E0
2.287533216E0,1.044143200E1,-2.921015322E-1,2.154847383E0
2.289534749E0,1.035284424E1,-2.992843390E-1,2.425400496E0
2.291536115E0,1.028101635E1,-2.944957912E-1,2.672010660E0
2.293537481E0,1.024749660E1,-3.208328187E-1,2.770175934E0
2.295538814E0,1.019242764E1,-3.591412306E-1,2.925803900E0
2.297540414E0,1.016369629E1,-3.806896806E-1,2.992843628E0
2.299541780E0,1.012538815E1,-4.716721475E-1,3.045517445E0
2.301543080E0,1.009186840E1,-5.099805593E-1,3.019180536E0
2.303544280E0,1.008468533E1,-5.578660369E-1,2.961717844E0
2.305545613E0,1.004158878E1,-6.153286099E-1,2.803695917E0
2.307546946E0,9.993702888E0,-6.775797606E-1,2.585816860E0
2.309548279E0,9.988914490E0,-7.254652381E-1,2.418217659E0
2.311549579E0,9.955394745E0,-8.236305118E-1,2.123721838E0
2.313550879E0,9.926663399E0,-9.265843630E-1,1.836408734E0
2.315552979E0,9.907508850E0,-9.577099085E-1,1.673598051E0
2.317554312E0,9.826104164E0,-1.039115310E0,1.393467903E0
2.319555645E0,9.790189743E0,-1.091789365E0,1.245022893E0
2.321557045E0,9.687235832E0,-1.166011810E0,9.553156495E-1
2.323558378E0,9.584281921E0,-1.254600048E0,6.464542150E-1
2.325559711E0,9.560338974E0,-1.321639657E0,4.932205975E-1
2.327561077E0,9.481328011E0,-1.436564922E0,2.059076279E-1
2.329561910E0,9.409500122E0,-1.558672905E0,-5.985686928E-2
2.331563243E0,9.354432106E0,-1.620923996E0,-1.963305324E-1
2.333564576E0,9.294574738E0,-1.762186289E0,-4.668835998E-1
2.335565909E0,9.220352173E0,-1.884294271E0,-7.206767201E-1
2.337567275E0,9.189227104E0,-1.941756845E0,-8.379961848E-1
2.339568608E0,9.098244667E0,-2.054287672E0,-1.055875182E0
2.341569941E0,8.980924606E0,-2.197944164E0,-1.137280583E0
2.343571974E0,8.901913643E0,-2.260195494E0,-1.309668303E0
2.345573374E0,8.753468513E0,-2.353572130E0,-1.405439258E0
2.347574707E0,8.672063828E0,-2.403851986E0,-1.458113313E0
2.349575840E0,8.502069473E0,-2.506805658E0,-1.546701550E0
2.351577240E0,8.324893951E0,-2.614548206E0,-1.587404251E0
2.353578540E0,8.221940041E0,-2.681587696E0,-1.613741279E0
2.355579873E0,8.020820618E0,-2.782147408E0,-1.611346960E0
2.357581206E0,7.829278469E0,-2.873129845E0,-1.628106833E0
2.359582506E0,7.654496670E0,-2.956929445E0,-1.642472506E0
2.361583872E0,7.553936958E0,-2.985660791E0,-1.642472506E0
2.363585205E0,7.403097630E0,-3.040729046E0,-1.661626697E0
2.365586505E0,7.331269264E0,-3.052700281E0,-1.640078187E0
2.367587838E0,7.187613010E0,-3.083826065E0,-1.644866824E0
2.369589571E0,7.130150318E0,-3.081431627E0,-1.637683988E0
2.371590937E0,7.051139355E0,-3.081431627E0,-1.625712633E0
2.373592303E0,7.010436535E0,-3.059883118E0,-1.601769805E0
2.375592936E0,7.020013809E0,-3.038334846E0,-1.585009933E0
2.377594269E0,7.034379482E0,-2.942563772E0,-1.544307232E0
2.379595602E0,7.110996246E0,-2.837215662E0,-1.527547359E0
2.381596935E0,7.139727592E0,-2.779752970E0,-1.515576005E0
2.383598235E0,7.283383846E0,-2.657644987E0,-1.510787368E0
2.385599601E0,7.482108593E0,-2.480468750E0,-1.484450340E0
2.387600901E0,7.601822376E0,-2.375120640E0,-1.505998850E0
2.389602234E0,7.877163887E0,-2.174001455E0,-1.486844659E0
2.391603600E0,8.035185814E0,-1.924996972E0,-1.477267504E0
2.393604966E0,8.353624344E0,-1.812466025E0,-1.465296149E0
2.395606266E0,8.700794220E0,-1.525153041E0,-1.453324795E0
2.397607632E0,8.870788574E0,-1.407833576E0,-1.441353440E0
2.399608965E0,9.287391663E0,-1.139674783E0,-1.431776285E0
2.401610298E0,9.708784103E0,-8.140534163E-1,-1.419804931E0
2.403610664E0,9.924268723E0,-6.392713785E-1,-1.407833576E0
2.405611930E0,1.033129597E1,-2.992843390E-1,-1.340793848E0
2.407613230E0,1.076226521E1,5.267404765E-2,-1.218685865E0
2.409614596E0,1.098253822E1,2.250618339E-1,-1.156434774E0
2.411616129E0,1.145421028E1,5.626545548E-1,-1.003201127E0
2.413617495E0,1.187799740E1,8.643332124E-1,-7.853221297E-1
2.415618861E0,1.212221336E1,1.010383964E0,-6.775797606E-1
2.417620227E0,1.250529766E1,1.283331275E0,-4.860377908E-1
2.419621593E0,1.284049606E1,1.549095750E0,-2.705530524E-1
2.421622959E0,1.298175812E1,1.671203852E0,-1.508393139E-1
2.423624292E0,1.317569447E1,1.944151163E0,7.422251999E-2
2.425626458E0,1.324752235E1,2.063864946E0,1.915419847E-1
2.427627791E0,1.330498505E1,2.269772530E0,3.974496126E-1
2.429628757E0,1.325949383E1,2.423006058E0,5.506832004E-1
2.431630390E0,1.319963741E1,2.463708878E0,6.225114465E-1
2.433637156E0,1.300570107E1,2.569056988E0,7.254652381E-1
2.435638456E0,1.273993587E1,2.619336605E0,7.925049663E-1
2.437639789E0,1.259628010E1,2.631308079E0,7.996878028E-1
2.439640889E0,1.227065849E1,2.619336605E0,7.972934842E-1
2.441642222E0,1.209348202E1,2.592999697E0,7.685621977E-1
2.443643888E0,1.173673534E1,2.523565531E0,7.278595567E-1
2.445645221E0,1.140153694E1,2.430188894E0,6.296942830E-1
2.447646554E0,1.124112034E1,2.389486313E0,5.865973234E-1
2.449647887E0,1.091549873E1,2.305686712E0,4.261809289E-1
2.451649220E0,1.062818623E1,2.178790092E0,2.992843390E-1
2.453650553E0,1.047255802E1,2.130904675E0,2.250618339E-1
2.455651953E0,1.020439911E1,1.984853864E0,5.746259540E-2
2.457653286E0,9.948211670E0,1.829225898E0,-3.112557158E-2
2.459654652E0,9.806949615E0,1.755003452E0,-5.746259540E-2
2.461656018E0,9.543579102E0,1.561067224E0,-1.197137386E-1
2.463657651E0,9.287391663E0,1.350371003E0,-1.580221355E-1
2.465658984E0,9.165284157E0,1.256994247E0,-1.580221355E-1
2.467660384E0,8.921068192E0,1.060663700E0,-1.268965602E-1
2.469661684E0,8.796566010E0,9.648927450E-1,-1.029538140E-1
2.471662784E0,8.564320564E0,7.518022656E-1,-3.830839694E-2
2.473664150E0,8.382355690E0,5.387118459E-1,3.351984918E-2
2.475665483E0,8.281796455E0,4.549122155E-1,9.337671846E-2
2.477666816E0,8.092648506E0,2.250618339E-1,2.083019018E-1
2.479668149E0,7.893924236E0,2.873129770E-2,3.375927508E-1
2.481669482E0,7.812518597E0,-1.005595401E-1,4.118152559E-1
2.483670848E0,7.664073467E0,-3.136500120E-1,5.506832004E-1
2.485671414E0,7.501263142E0,-5.219519138E-1,6.584255695E-1
2.487672780E0,7.407886028E0,-6.416656375E-1,7.254652381E-1
2.489674113E0,7.259441376E0,-8.475732803E-1,8.332076073E-1
2.491675179E0,7.204372883E0,-9.648927450E-1,8.930644989E-1
2.495672478E0,6.941002846E0,-1.388679385E0,1.010383964E0
2.497673844E0,6.864386082E0,-1.470084786E0,1.043903828E0
2.499675410E0,6.749460697E0,-1.647261024E0,1.101366401E0
2.501676743E0,6.639324188E0,-1.802888989E0,1.125309110E0
2.503677809E0,6.601015568E0,-1.877111435E0,1.161223292E0
2.505679109E0,6.531581879E0,-2.020767927E0,1.213897347E0
2.507680475E0,6.462147713E0,-2.164424419E0,1.242628574E0
2.509681841E0,6.397502422E0,-2.233858347E0,1.254600048E0
2.511683307E0,6.332856655E0,-2.346389294E0,1.288119793E0
2.513684640E0,6.289760113E0,-2.463708878E0,1.290514112E0
2.515685940E0,6.246663094E0,-2.511594296E0,1.314456820E0
2.517687273E0,6.203566074E0,-2.592999697E0,1.331216812E0
2.519688606E0,6.196382999E0,-2.604970932E0,1.352765322E0
2.521689939E0,6.143709183E0,-2.638490915E0,1.345582485E0
2.523691272E0,6.076669693E0,-2.676799297E0,1.345582485E0
2.525692638E0,6.057515144E0,-2.705530643E0,1.357553840E0
2.527693971E0,6.026389599E0,-2.712713242E0,1.369525194E0
2.529695337E0,6.009629726E0,-2.693559170E0,1.362342358E0
2.531696703E0,6.023995399E0,-2.660039425E0,1.355159521E0
2.533697969E0,6.031178474E0,-2.633702278E0,1.374313712E0
2.535699302E0,6.091034889E0,-2.590605259E0,1.355159521E0
2.537700635E0,6.119766235E0,-2.564268351E0,1.369525194E0
2.539701968E0,6.167652130E0,-2.461314440E0,1.355159521E0
2.541703301E0,6.208354473E0,-2.415823221E0,1.345582485E0
2.543704667E0,6.352011204E0,-2.322446585E0,1.355159521E0
2.545706000E0,6.435810566E0,-2.183578730E0,1.371919513E0
2.547707333E0,6.505244732E0,-2.102173328E0,1.383890867E0
2.549708699E0,6.644112587E0,-1.972882390E0,1.400650740E0
2.551710032E0,6.785374641E0,-1.795706153E0,1.436564922E0
2.553711332E0,6.835654736E0,-1.707117915E0,1.460507631E0
2.555712698E0,6.962551117E0,-1.551490068E0,1.508393168E0
2.557714031E0,7.175641537E0,-1.374313712E0,1.544307232E0
2.559715364E0,7.261835575E0,-1.283331275E0,1.558672905E0
2.561716697E0,7.400703430E0,-1.110943556E0,1.577827096E0
2.563718030E0,7.474925995E0,-9.361614585E-1,1.582615614E0
2.565719396E0,7.642525196E0,-8.715160489E-1,1.585009933E0
2.567720729E0,7.800547123E0,-7.110996246E-1,1.575432777E0
2.569722062E0,7.862798691E0,-6.249057055E-1,1.565855742E0
2.571723762E0,7.977723598E0,-5.123748183E-1,1.503604531E0
2.573725128E0,8.073494911E0,-3.974496126E-1,1.441353440E0
2.575726494E0,8.130957603E0,-3.519583941E-1,1.391073704E0
2.577727827E0,8.205180168E0,-2.609759569E-1,1.333611012E0
2.579729793E0,8.262641907E0,-1.508393139E-1,1.280937076E0
2.581731093E0,8.281796455E0,-9.098244458E-2,1.254600048E0
2.583732426E0,8.312922478E0,9.577099234E-3,1.180377483E0
2.585733792E0,8.296162605E0,7.661679387E-2,1.158828974E0
2.587735125E0,8.272219658E0,1.292908341E-1,1.096577883E0
2.589736458E0,8.197997093E0,1.460507661E-1,1.065452337E0
2.591737758E0,8.145322800E0,1.580221355E-1,1.027143836E0
2.593739791E0,8.054340363E0,1.604164094E-1,9.960182905E-1
2.595741124E0,7.956175327E0,1.580221355E-1,9.505270720E-1
2.597742490E0,7.908289909E0,1.532335877E-1,9.361614585E-1
2.599743823E0,7.774210453E0,1.245022863E-1,9.002473354E-1
2.601745189E0,7.661679268E0,1.029538140E-1,8.667274714E-1
2.603746522E0,7.618582249E0,9.337671846E-2,8.595446348E-1
2.605747822E0,7.529994488E0,5.027977005E-2,8.499675393E-1
2.607749188E0,7.450983047E0,1.915419847E-2,8.403904438E-1
2.609750521E0,7.419857502E0,-9.577099234E-3,8.379961848E-1
2.611751854E0,7.357606411E0,-4.788549617E-2,8.810931444E-1
2.613753220E0,7.348029613E0,-6.703969836E-2,8.954587579E-1
2.615754986E0,7.295355320E0,-8.140534163E-2,9.098244309E-1
2.617756319E0,7.264229774E0,-1.460507661E-1,9.601042271E-1
2.619757719E0,7.259441376E0,-1.795706153E-1,9.888355136E-1
2.621759085E0,7.249864101E0,-2.466102988E-1,1.053480864E0
2.623761118E0,7.252258301E0,-3.016786277E-1,1.096577883E0
2.625762484E0,7.247469902E0,-3.375927508E-1,1.113337755E0
2.627763817E0,7.269018173E0,-4.022381604E-1,1.182771802E0
2.629765150E0,7.285778046E0,-4.668835998E-1,1.216291547E0
2.631766016E0,7.285778046E0,-5.004034638E-1,1.218685865E0
2.633767316E0,7.312115192E0,-5.746259689E-1,1.264177084E0
2.635768649E0,7.312115192E0,-6.225114465E-1,1.273754239E0
2.637769982E0,7.312115192E0,-6.512427330E-1,1.288119793E0
2.639770715E0,7.348029613E0,-7.230709791E-1,1.319245458E0
2.641772081E0,7.360000610E0,-7.757450342E-1,1.324033976E0
2.643773447E0,7.393520832E0,-8.332076073E-1,1.336005330E0
2.645774780E0,7.419857502E0,-8.954587579E-1,1.355159521E0
2.647776113E0,7.434223175E0,-9.361614585E-1,1.376708031E0
2.649777479E0,7.448588848E0,-1.019961119E0,1.391073704E0
2.651778812E0,7.491685867E0,-1.118126392E0,1.419804931E0
2.653779512E0,7.525205612E0,-1.122914910E0,1.429382086E0
2.655780878E0,7.575485706E0,-1.201925993E0,1.470084786E0
2.657782211E0,7.611399651E0,-1.264177084E0,1.505998850E0
2.659783577E0,7.656890869E0,-1.347976685E0,1.561067224E0
2.661784910E0,7.690410614E0,-1.367130876E0,1.573038578E0
2.663786210E0,7.702382088E0,-1.403045058E0,1.604164124E0
2.665787576E0,7.738296032E0,-1.448536277E0,1.654443860E0
2.667788909E0,7.805335999E0,-1.486844659E0,1.716695070E0
2.669790242E0,7.829278469E0,-1.503604531E0,1.735849261E0
2.671791608E0,7.896318436E0,-1.529941559E0,1.778946161E0
2.673792974E0,7.939415455E0,-1.551490068E0,1.867534399E0
2.675793840E0,7.965752125E0,-1.556278586E0,1.901054144E0
2.677795173E0,8.030397415E0,-1.568249941E0,1.977671027E0
2.679796473E0,8.128562927E0,-1.580221415E0,2.071047783E0
2.681797773E0,8.183630943E0,-1.585009933E0,2.109356165E0
2.683799039E0,8.298556328E0,-1.589798450E0,2.190761566E0
2.685800372E0,8.341653824E0,-1.585009933E0,2.236252785E0
2.687801738E0,8.449396133E0,-1.573038578E0,2.303292274E0
2.689803804E0,8.547560692E0,-1.573038578E0,2.370332003E0
2.691805137E0,8.578686714E0,-1.556278586E0,2.403851986E0
2.693806503E0,8.640937805E0,-1.539518714E0,2.456526041E0
2.695807869E0,8.698400497E0,-1.496421814E0,2.513988495E0
2.697809235E0,8.729525566E0,-1.489238977E0,2.530748367E0
2.699810768E0,8.772623062E0,-1.450930476E0,2.576239586E0
2.701812134E0,8.813325882E0,-1.419804931E0,2.631308079E0
2.703813467E0,8.825297356E0,-1.386285067E0,2.633702278E0
2.705814800E0,8.830085754E0,-1.374313712E0,2.683982134E0
2.707816133E0,8.861210823E0,-1.309668303E0,2.739050388E0
2.709817533E0,8.868393898E0,-1.297696948E0,2.774964571E0
2.711818899E0,8.913885117E0,-1.288119793E0,2.770175934E0
2.713820265E0,8.940221786E0,-1.259388566E0,2.789330244E0
2.715821598E0,8.973741531E0,-1.228263021E0,2.798907280E0
2.717822931E0,9.033598900E0,-1.170800328E0,2.774964571E0
2.719824297E0,9.076695442E0,-1.122914910E0,2.760598898E0
2.721825597E0,9.110215187E0,-1.108549237E0,2.743839025E0
2.723826963E0,9.203592300E0,-1.043903828E0,2.715107679E0
2.725828296E0,9.249083519E0,-1.015172482E0,2.722290516E0
2.727829629E0,9.356825829E0,-9.672870040E-1,2.693559170E0
2.729830962E0,9.443019867E0,-9.098244309E-1,2.674404860E0
2.731832295E0,9.483722687E0,-8.739103079E-1,2.667222023E0
2.733833628E0,9.569916725E0,-8.284190893E-1,2.633702278E0
2.735834994E0,9.620196342E0,-7.901107073E-1,2.616942406E0
2.737836360E0,9.723150253E0,-7.374366522E-1,2.566662550E0
2.739837726E0,9.842864037E0,-6.799740195E-1,2.518777132E0
2.741839092E0,9.883566856E0,-6.727912426E-1,2.518777132E0
2.743839792E0,9.986519814E0,-6.344828010E-1,2.482862949E0
2.745841125E0,1.008229160E1,-6.153286099E-1,2.463708878E0
2.747842258E0,1.014454269E1,-6.129343510E-1,2.449343204E0
2.749842891E0,1.026425648E1,-6.033572555E-1,2.439765930E0
2.751844224E0,1.037199879E1,-6.249057055E-1,2.456526041E0
2.753845590E0,1.043424988E1,-6.249057055E-1,2.456526041E0
2.755846923E0,1.054438591E1,-6.392713785E-1,2.456526041E0
2.757848256E0,1.065931129E1,-6.464542150E-1,2.463708878E0
2.759849089E0,1.072395706E1,-6.512427330E-1,2.480468750E0
2.761850389E0,1.083409309E1,-6.416656375E-1,2.511594296E0
2.763851689E0,1.088676739E1,-6.464542150E-1,2.525959969E0
2.765853022E0,1.096098995E1,-6.703969240E-1,2.552296877E0
2.767854388E0,1.104957867E1,-6.536370516E-1,2.583422422E0
2.769855654E0,1.108549213E1,-6.608198285E-1,2.604970932E0
2.771857020E0,1.110225201E1,-6.440598965E-1,2.650462151E0
2.773858353E0,1.111182976E1,-6.560313106E-1,2.688770533E0
2.775859686E0,1.111901188E1,-6.536370516E-1,2.736656189E0
2.777861052E0,1.109506989E1,-6.225114465E-1,2.818061352E0
2.779862352E0,1.108070374E1,-5.961744189E-1,2.906649590E0
2.781863685E0,1.107831001E1,-5.818088055E-1,2.932986736E0
2.783865051E0,1.108070374E1,-5.698373914E-1,2.990449190E0
2.785866384E0,1.107591534E1,-5.387118459E-1,3.014391899E0
2.787867684E0,1.110704041E1,-5.147690773E-1,3.093403101E0
2.789869017E0,1.112140656E1,-4.525179267E-1,3.141288519E0
2.791870350E0,1.112619495E1,-4.285751879E-1,3.177202702E0
2.793871683E0,1.116450310E1,-3.639297783E-1,3.277762175E0
2.795873049E0,1.120760059E1,-2.825244367E-1,3.407052994E0
2.797874382E0,1.120281219E1,-2.418217510E-1,3.478881359E0
2.799875715E0,1.124830341E1,-1.221080124E-1,3.636903524E0
2.801877081E0,1.125788021E1,4.070267081E-2,3.782954216E0
2.803878447E0,1.125069714E1,1.221080124E-1,3.830839634E0
2.805879780E0,1.131055450E1,3.112557232E-1,3.900273561E0
2.807881346E0,1.135604572E1,5.051919818E-1,3.897879362E0
2.809882679E0,1.154519272E1,6.057515144E-1,3.818868399E0
2.811884012E0,1.183968925E1,8.068706393E-1,3.656057596E0
2.813885312E0,1.201207638E1,8.763045669E-1,3.521978140E0
2.815886612E0,1.246938324E1,1.027143836E0,3.181991339E0
2.817887978E0,1.300091267E1,1.182771802E0,2.774964571E0
2.819889644E0,1.326188850E1,1.256994247E0,2.557085514E0
2.821891010E0,1.378384018E1,1.369525194E0,2.176395893E0
2.823892410E0,1.426030064E1,1.486844659E0,1.836408734E0
2.825893776E0,1.450691128E1,1.515576005E0,1.673598051E0
2.827895109E0,1.494506359E1,1.515576005E0,1.403045058E0
2.829896475E0,1.552208328E1,1.395862222E0,1.235445857E0
2.831897808E0,1.579024220E1,1.326428294E0,1.177983165E0
2.833899108E0,1.629303932E1,1.118126392E0,1.058269501E0
2.835900441E0,1.651570702E1,9.888355136E-1,1.017566800E0
2.837901741E0,1.688681984E1,7.446194887E-1,9.337671995E-1
2.839903074E0,1.708794022E1,4.740664065E-1,8.379961848E-1
2.841904440E0,1.710709381E1,3.735068738E-1,7.709565163E-1
2.843905773E0,1.704005432E1,1.652049571E-1,6.249057055E-1
2.845907139E0,1.671922112E1,1.675992459E-2,4.429408312E-1
2.847908505E0,1.648937035E1,-3.830839694E-2,3.543526828E-1
2.849909871E0,1.581897354E1,-1.053480953E-1,1.340793967E-1
2.851911637E0,1.501210308E1,-9.337671846E-2,-5.267404765E-2
2.853913003E0,1.460507679E1,-6.703969836E-2,-1.053480953E-1
2.855914336E0,1.376468563E1,-1.197137404E-2,-1.532335877E-1
2.857915669E0,1.339596748E1,2.394274808E-2,-1.316851079E-1
2.859917035E0,1.274233055E1,7.661679387E-2,-4.788549617E-2
2.861918368E0,1.223474407E1,1.460507661E-1,8.619388938E-2
2.863919701E0,1.202644253E1,1.771763414E-1,1.412622184E-1
2.865921067E0,1.168645573E1,2.274561077E-1,2.992843390E-1
2.867922400E0,1.147815323E1,3.256213665E-1,3.998439014E-1
2.869923733E0,1.139674854E1,3.854782581E-1,4.501236677E-1
2.871925099E0,1.128900528E1,4.764606953E-1,4.836435020E-1
2.873926465E0,1.121717739E1,6.464542150E-1,4.860377908E-1
2.875927831E0,1.121957207E1,7.158881426E-1,4.381522834E-1
2.877929131E0,1.115971470E1,8.786988258E-1,3.471698463E-1
2.879930464E0,1.114056110E1,1.029538155E0,3.016786277E-1
2.881931830E0,1.109985828E1,1.106154919E0,1.436564922E-1
2.883933163E0,1.105915546E1,1.264177084E0,-3.591412306E-2
2.885934496E0,1.104000092E1,1.316851139E0,-1.149251908E-1
2.887942329E0,1.095380688E1,1.443747759E0,-2.777358890E-1
2.889943662E0,1.088916206E1,1.515576005E0,-3.878725171E-1
2.891944995E0,1.086282444E1,1.549095750E0,-4.429408312E-1
2.893946395E0,1.076465988E1,1.585009933E0,-4.740664065E-1
2.895947761E0,1.064015770E1,1.632895470E0,-4.716721475E-1
2.897949127E0,1.060424328E1,1.628106833E0,-4.692778587E-1
2.899950527E0,1.046058655E1,1.647261024E0,-4.644893110E-1
2.901955560E0,1.029777622E1,1.623318315E0,-4.166038036E-1
2.903956593E0,1.021158218E1,1.640078187E0,-3.974496126E-1
2.905957959E0,1.001285744E1,1.640078187E0,-3.328042030E-1
2.907959325E0,9.921875000E0,1.668809533E0,-3.040728867E-1
2.909960658E0,9.723150253E0,1.668809533E0,-2.466102988E-1
2.911961291E0,9.538790703E0,1.714300752E0,-1.915419847E-1
2.913962624E0,9.474145889E0,1.752609134E0,-1.675992310E-1
2.915963924E0,9.304151535E0,1.802888989E0,-1.149251908E-1
2.917965290E0,9.203592300E0,1.869928598E0,-7.182824612E-2
2.919966623E0,9.158101082E0,1.922602654E0,-5.267404765E-2
2.921967956E0,9.131764412E0,2.004008055E0,-3.112557158E-2
2.923969322E0,9.177255630E0,2.135693073E0,3.351984918E-2
2.925970655E0,9.222746849E0,2.205127001E0,5.267404765E-2
2.927971988E0,9.364008904E0,2.329629421E0,1.173194647E-1
2.929973354E0,9.443019867E0,2.461314440E0,1.364736706E-1
2.931974687E0,9.617801666E0,2.537931204E0,1.699935049E-1
2.933976720E0,9.830892563E0,2.643279314E0,1.795706153E-1
2.935978086E0,9.945817947E0,2.698347807E0,1.795706153E-1
2.937979452E0,1.019721603E1,2.789330244E0,1.173194647E-1
2.939980785E0,1.046058655E1,2.875524044E0,5.027977005E-2
2.941982118E0,1.059945488E1,2.882706881E0,-2.394274808E-3
2.943983451E0,1.088437366E1,2.916226625E0,-5.985686928E-2
2.945984784E0,1.118126297E1,2.906649590E0,-1.652049571E-1
2.949980983E0,1.158829021E1,2.846792698E0,-2.657645047E-1
2.951982349E0,1.188518047E1,2.782147408E0,-3.136500120E-1
2.953983682E0,1.201447105E1,2.746233225E0,-3.423812985E-1
2.955985015E0,1.230417824E1,2.645673752E0,-3.854782581E-1
2.957986381E0,1.246698856E1,2.573845387E0,-4.094209969E-1
2.959987714E0,1.292669010E1,2.375120640E0,-4.166038036E-1
2.963986946E0,1.324273396E1,2.209915638E0,-3.926610649E-1
2.965988279E0,1.353483582E1,2.018373728E0,-3.639297783E-1
2.967989612E0,1.379581165E1,1.843591571E0,-3.351984620E-1
2.969990978E0,1.389637089E1,1.766974807E0,-3.232271075E-1
2.971992611E0,1.401847935E1,1.546701550E0,-3.016786277E-1
2.973993911E0,1.415016365E1,1.300091267E0,-2.490045726E-1
2.975995011E0,1.423156929E1,1.142069101E0,-1.987248063E-1
2.977996344E0,1.435846615E1,8.188419938E-1,-8.619388938E-2
2.979997644E0,1.439916897E1,4.980091453E-1,-4.549122229E-2
2.981999010E0,1.447099686E1,3.040728867E-1,4.549122229E-2
2.984000343E0,1.443508244E1,-7.661679387E-2,1.532335877E-1
2.986001676E0,1.437762070E1,-2.561874092E-1,2.202732861E-1
2.988003042E0,1.424354076E1,-6.799740195E-1,3.399870098E-1
2.990004375E0,1.404002762E1,-1.098972082E0,4.453351200E-1
2.992005708E0,1.390594769E1,-1.290514112E0,4.860377908E-1
2.994006374E0,1.356596088E1,-1.647261024E0,5.626545548E-1
2.996007707E0,1.317808819E1,-1.963305354E0,6.249057055E-1
2.998014640E0,1.297696972E1,-2.109356165E0,6.656084061E-1
3.000015973E0,1.252923965E1,-2.370332003E0,7.565908432E-1
3.002017273E0,1.210066509E1,-2.571451187E0,8.068706393E-1
3.004018606E0,1.192588329E1,-2.664827824E0,9.050358534E-1
3.006019706E0,1.157153034E1,-2.820455790E0,9.672870040E-1
3.008021039E0,1.141350842E1,-2.851581335E0,1.031932473E0
3.010023239E0,1.108309841E1,-2.952140808E0,1.110943556E0
3.012024572E0,1.074550533E1,-3.002420664E0,1.180377483E0
3.014025905E0,1.058987713E1,-3.028757572E0,1.199531674E0
3.016027238E0,1.033847904E1,-3.045517445E0,1.242628574E0
3.018028571E0,1.011581135E1,-3.052700281E0,1.259388566E0
3.020029871E0,9.895537376E0,-3.007209063E0,1.273754239E0
3.022031337E0,9.799766541E0,-2.976083517E0,1.266571403E0
3.024032670E0,9.545973778E0,-2.937775135E0,1.256994247E0
3.026034003E0,9.419076920E0,-2.913832426E0,1.264177084E0
3.028035369E0,9.179649353E0,-2.834821463E0,1.280937076E0
3.030036669E0,9.033598900E0,-2.794118643E0,1.302485466E0
3.032038002E0,8.789382935E0,-2.724684715E0,1.347976685E0
3.034039402E0,8.559532166E0,-2.604970932E0,1.388679385E0
3.036041002E0,8.423058510E0,-2.561874151E0,1.417410731E0
3.038042335E0,8.217150688E0,-2.430188894E0,1.482056141E0
3.040043735E0,7.984906673E0,-2.296109438E0,1.513181686E0
3.042045068E0,7.858009815E0,-2.238646984E0,1.546701550E0
3.044046401E0,7.676044941E0,-2.092596292E0,1.596981287E0
3.046047734E0,7.474925995E0,-1.903448462E0,1.616135478E0
3.048049067E0,7.383943558E0,-1.817254543E0,1.596981287E0
3.050050400E0,7.221132755E0,-1.647261024E0,1.599375606E0
3.052051866E0,7.082264900E0,-1.436564922E0,1.599375606E0
3.054053166E0,6.988888264E0,-1.338399649E0,1.587404251E0
3.056054499E0,6.814105988E0,-1.127703428E0,1.563461423E0
3.060051598E0,6.608198643E0,-7.948992252E-1,1.505998850E0
3.062052964E0,6.514821529E0,-5.602602959E-1,1.482056141E0
3.064054330E0,6.474119186E0,-4.573064744E-1,1.472478986E0
3.066055896E0,6.366376877E0,-1.987248063E-1,1.424593568E0
3.068057229E0,6.275394440E0,4.549122229E-2,1.388679385E0
3.070057729E0,6.249057293E0,1.604164094E-1,1.364736676E0
3.072059029E0,6.191594601E0,3.687183261E-1,1.331216812E0
3.074060362E0,6.167652130E0,5.722316504E-1,1.300091267E0
3.076061695E0,6.148497581E0,6.775797606E-1,1.285725594E0
3.078063028E0,6.131737709E0,9.217957854E-1,1.252205729E0
3.080064394E0,6.107795238E0,1.113337755E0,1.247417212E0
3.082065727E0,6.105400562E0,1.204320192E0,1.266571403E0
3.084067760E0,6.093429565E0,1.376708031E0,1.237840056E0
3.086069093E0,6.067092419E0,1.450930476E0,1.225868702E0
3.088070393E0,6.033572674E0,1.587404251E0,1.259388566E0
3.090071759E0,6.014418125E0,1.716695070E0,1.268965602E0
3.092073125E0,5.995264053E0,1.781340480E0,1.276148438E0
3.094074458E0,5.935407162E0,1.886688590E0,1.302485466E0
3.096081958E0,5.921041489E0,1.936968327E0,1.326428294E0
3.098083324E0,5.897099018E0,1.944151163E0,1.336005330E0
3.100084657E0,5.844424725E0,2.004008055E0,1.386285067E0
3.102085657E0,5.832453251E0,2.008796453E0,1.379102230E0
3.104087023E0,5.791750908E0,1.987248063E0,1.400650740E0
3.106088356E0,5.753442287E0,2.001613855E0,1.400650740E0
3.108089389E0,5.724710941E0,1.970488191E0,1.407833576E0
3.110090755E0,5.700768471E0,1.934574008E0,1.429382086E0
3.112091988E0,5.652883053E0,1.874717116E0,1.455719113E0
3.114093354E0,5.624151707E0,1.824437380E0,1.460507631E0
3.116094720E0,5.588237286E0,1.721483588E0,1.486844659E0
3.118096453E0,5.530774593E0,1.652049661E0,1.513181686E0
3.120097819E0,5.514014721E0,1.611346960E0,1.503604531E0
3.122099185E0,5.482889175E0,1.515576005E0,1.532335877E0
3.124100485E0,5.463735104E0,1.412622094E0,1.517970204E0
3.126102051E0,5.451763630E0,1.381496549E0,1.517970204E0
3.128103417E0,5.418243885E0,1.249811411E0,1.534730196E0
3.130104483E0,5.420638084E0,1.180377483E0,1.534730196E0
3.132105849E0,5.420638084E0,1.058269501E0,1.525153041E0
3.134107182E0,5.408666611E0,9.385557175E-1,1.520364523E0
3.136108548E0,5.411061287E0,8.906702399E-1,1.525153041E0
3.138109581E0,5.408666611E0,7.805336118E-1,1.525153041E0
3.140110914E0,5.456552505E0,6.656084061E-1,1.520364523E0
3.142112214E0,5.461340904E0,6.105400920E-1,1.515576005E0
3.144112847E0,5.499649048E0,5.004034638E-1,1.539518714E0
3.146114213E0,5.514014721E0,3.782954216E-1,1.561067224E0
3.148115579E0,5.552323341E0,3.112557232E-1,1.568249941E0
3.150116912E0,5.593026161E0,2.346389294E-1,1.580221415E0
3.152118945E0,5.609786034E0,1.364736706E-1,1.582615614E0
3.154120245E0,5.676825523E0,8.379961550E-2,1.616135478E0
3.158116745E0,5.774991035E0,-5.027977005E-2,1.642472506E0
3.160118045E0,5.834847927E0,-1.412622184E-1,1.659232497E0
3.162119711E0,5.933012962E0,-2.202732861E-1,1.719089270E0
3.164121044E0,5.988081455E0,-2.513988614E-1,1.740637779E0
3.166122410E0,6.071880817E0,-3.184385598E-1,1.766974807E0
3.168124076E0,6.136526108E0,-3.663240373E-1,1.810071707E0
3.170125109E0,6.198777676E0,-3.926610649E-1,1.824437380E0
3.172126509E0,6.284971237E0,-4.453351200E-1,1.884294271E0
3.174127875E0,6.378347874E0,-5.051919818E-1,1.908236980E0
3.176129208E0,6.411868095E0,-5.363175869E-1,1.946545362E0
3.178130141E0,6.481301785E0,-5.482889414E-1,1.975276709E0
3.180131174E0,6.514821529E0,-5.602602959E-1,2.008796453E0
3.182133207E0,6.639324188E0,-5.865973234E-1,2.061470509E0
3.184134573E0,6.744672298E0,-6.081457734E-1,2.114144564E0
3.186135739E0,6.799740314E0,-5.913859010E-1,2.126116037E0
3.188137072E0,6.929031372E0,-5.794144869E-1,2.176395893E0
3.190138638E0,7.036773682E0,-5.387118459E-1,2.212309837E0
3.192140004E0,7.094236374E0,-5.099805593E-1,2.217098475E0
3.194141370E0,7.175641537E0,-4.764606953E-1,2.257801056E0
3.196142703E0,7.266623974E0,-4.429408312E-1,2.262589693E0
3.198144336E0,7.300143719E0,-4.094209969E-1,2.260195494E0
3.200145902E0,7.338452339E0,-3.759011328E-1,2.248224020E0
3.206525947E0,7.367183685E0,-3.495641351E-1,2.238646984E0
3.208528013E0,7.450983047E0,-3.184385598E-1,2.231464148E0
3.210529346E0,7.520417213E0,-2.753416002E-1,2.214704275E0
3.212530646E0,7.544359684E0,-2.370332032E-1,2.193155766E0
3.214532012E0,7.616188049E0,-1.652049571E-1,2.166818619E0
3.216532645E0,7.702382088E0,-1.268965602E-1,2.135693073E0
3.218534011E0,7.743084908E0,-1.149251908E-1,2.104567528E0
3.220535377E0,7.817307472E0,-5.027977005E-2,2.042316437E0
3.222536977E0,7.898712635E0,-7.182824425E-3,1.977671027E0
3.224538110E0,7.953781128E0,4.309694469E-2,1.958516836E0
3.226539476E0,8.051946640E0,8.379961550E-2,1.896265626E0
3.228540809E0,8.104619980E0,1.771763414E-1,1.869928598E0
3.230542142E0,8.197997093E0,2.130904645E-1,1.793311834E0
3.232543475E0,8.277008057E0,2.992843390E-1,1.728666425E0
3.234545075E0,8.300951004E0,3.351984620E-1,1.671203852E0
3.236546375E0,8.377567291E0,3.806896806E-1,1.573038578E0
3.238547808E0,8.418270111E0,4.477293789E-1,1.494027495E0
3.240549108E0,8.425453186E0,4.764606953E-1,1.460507631E0
3.242550474E0,8.456578255E0,5.267404318E-1,1.355159521E0
3.244552107E0,8.475732803E0,5.913859010E-1,1.280937076E0
3.246553173E0,8.490098000E0,6.105400920E-1,1.240234375E0
3.248554539E0,8.492492676E0,6.584255695E-1,1.185166001E0
3.250555872E0,8.478127480E0,7.134938836E-1,1.103760719E0
3.252557205E0,8.470944405E0,7.206767201E-1,1.082212210E0
3.254558605E0,8.458972931E0,7.709565163E-1,1.048692346E0
3.256559905E0,8.468549728E0,7.972934842E-1,1.051086664E0
3.258561238E0,8.499675751E0,8.667274714E-1,1.063058019E0
3.260562604E0,8.511647224E0,9.217957854E-1,1.110943556E0
3.262563970E0,8.540378571E0,9.361614585E-1,1.149251938E0
3.264565103E0,8.609811783E0,9.792584181E-1,1.237840056E0
3.266566036E0,8.691217422E0,1.022355318E0,1.319245458E0
3.268566669E0,8.722343445E0,1.036720991E0,1.374313712E0
3.270568002E0,8.789382935E0,1.051086664E0,1.496421814E0
3.272569402E0,8.863605499E0,1.063058019E0,1.577827096E0
3.274570702E0,8.865999222E0,1.063058019E0,1.649655342E0
3.276572035E0,8.916279793E0,1.053480864E0,1.721483588E0
3.278573368E0,8.925856590E0,1.051086664E0,1.752609134E0
3.280574668E0,8.959376335E0,1.051086664E0,1.819648862E0
3.282575768E0,8.990502357E0,1.034326673E0,1.886688590E0
3.284577334E0,9.009655952E0,1.036720991E0,1.903448462E0
3.286578667E0,9.081484795E0,1.012778282E0,1.927391171E0
3.288583200E0,9.150918007E0,9.816526771E-1,1.951334000E0
3.290584566E0,9.189227104E0,9.864411950E-1,1.970488191E0
3.292585899E0,9.270631790E0,9.529213905E-1,1.915419817E0
3.294587265E0,9.390345573E0,9.265843630E-1,1.896265626E0
3.296588565E0,9.433443069E0,9.170072675E-1,1.881899953E0
3.298589798E0,9.545973778E0,9.050358534E-1,1.869928598E0
3.300591164E0,9.670475960E0,8.643332124E-1,1.872322917E0
3.302592564E0,9.723150253E0,8.595446348E-1,1.841197371E0
3.304594197E0,9.859623909E0,8.044763207E-1,1.841197371E0
3.306595130E0,9.924268723E0,7.948992252E-1,1.853168726E0
3.308596463E0,1.005595398E1,7.781392932E-1,1.877111435E0
3.310597796E0,1.018045616E1,7.518022656E-1,1.963305354E0
3.312599129E0,1.025707340E1,7.254652381E-1,2.001613855E0
3.314600462E0,1.041270161E1,7.015225291E-1,2.099778891E0
3.316601828E0,1.054438591E1,6.703969240E-1,2.226675510E0
3.318603194E0,1.061382008E1,6.632141471E-1,2.288926601E0
3.320604527E0,1.075747681E1,6.703969240E-1,2.418217659E0
3.322606560E0,1.090113354E1,6.536370516E-1,2.588211060E0
3.324607926E0,1.107831001E1,6.440598965E-1,2.743839025E0
3.326609259E0,1.116210938E1,6.464542150E-1,2.849187136E0
3.328610559E0,1.125069714E1,6.368771195E-1,2.947352171E0
3.330611925E0,1.140632534E1,6.584255695E-1,3.110162973E0
3.332613225E0,1.158589554E1,6.320885420E-1,3.284945011E0
3.334614558E0,1.168645573E1,6.296942830E-1,3.361561775E0
3.336615891E0,1.188518047E1,6.440598965E-1,3.481275558E0
3.338617224E0,1.209827042E1,6.129343510E-1,3.620143414E0
3.340618557E0,1.217488766E1,6.009629965E-1,3.694365978E0
3.342619890E0,1.237600613E1,5.602602959E-1,3.797319889E0
3.344621223E0,1.257712555E1,5.411061049E-1,3.900273561E0
3.346622523E0,1.268726254E1,5.099805593E-1,3.929004908E0
3.350621989E0,1.297218132E1,4.477293789E-1,4.043930054E0
3.352624022E0,1.317569447E1,4.285751879E-1,4.108575344E0
3.354625388E0,1.334089947E1,3.830839694E-1,4.156461239E0
3.356626721E0,1.340554428E1,3.663240373E-1,4.180403709E0
3.358628054E0,1.353722954E1,3.232271075E-1,4.221106529E0
3.360629387E0,1.365454960E1,2.777358890E-1,4.257020473E0
3.362630853E0,1.370482922E1,2.537931204E-1,4.295329094E0
3.364631919E0,1.377426338E1,2.011190802E-1,4.391099930E0
3.366633219E0,1.383411980E1,1.245022863E-1,4.529967785E0
3.368634519E0,1.386045647E1,9.098244458E-2,4.611373425E0
3.370635852E0,1.387482262E1,4.788549617E-2,4.714327335E0
3.372637218E0,1.390594769E1,-3.591412306E-2,4.805309772E0
3.374638551E0,1.389876556E1,-8.140534163E-2,4.838829517E0
3.376639884E0,1.393467903E1,-1.508393139E-1,4.877137661E0
3.378641217E0,1.397298813E1,-1.843591630E-1,4.908263206E0
3.380642550E0,1.411425018E1,-2.442160249E-1,4.891503334E0
3.382643216E0,1.435128307E1,-2.777358890E-1,4.786155224E0
3.384644516E0,1.467451000E1,-3.519583941E-1,4.489265442E0
3.386645882E0,1.481577206E1,-3.687183261E-1,4.304905891E0
3.388647282E0,1.513421154E1,-4.022381604E-1,3.864359617E0
3.390648582E0,1.525153065E1,-3.974496126E-1,3.608172178E0
3.392649948E0,1.545025539E1,-3.471698463E-1,3.047911882E0
3.394651314E0,1.568728828E1,-3.016786277E-1,2.442160368E0
3.396652647E0,1.583573341E1,-2.849186957E-1,2.150058746E0
3.398653980E0,1.613741302E1,-2.178790122E-1,1.611346960E0
3.400655380E0,1.623557663E1,-1.053480953E-1,1.381496549E0
3.402656746E0,1.643190765E1,-6.703969836E-2,9.026415944E-1
3.404658112E0,1.657077599E1,1.197137404E-2,4.812492430E-1
3.406659512E0,1.658274651E1,4.309694469E-2,2.897072434E-1
3.408660878E0,1.654922676E1,4.788549617E-2,-3.591412306E-2
3.410662511E0,1.636008072E1,2.394274808E-3,-2.992843390E-1
3.412663144E0,1.618769264E1,-2.633702382E-2,-4.189980924E-1
3.414664744E0,1.573277950E1,-1.173194647E-1,-5.913859010E-1
3.416666110E0,1.509350872E1,-2.154847383E-1,-6.799740195E-1
3.418667476E0,1.476309872E1,-2.657645047E-1,-6.943396926E-1
3.420668842E0,1.401608467E1,-3.878725171E-1,-7.087053657E-1
3.422669975E0,1.327385998E1,-4.549122155E-1,-6.751855016E-1
3.424671341E0,1.291232395E1,-4.740664065E-1,-6.105400920E-1
3.426672441E0,1.226587009E1,-5.195576549E-1,-5.961744189E-1
3.428673807E0,1.195461369E1,-5.387118459E-1,-5.818088055E-1
3.430675140E0,1.144702816E1,-5.315290093E-1,-5.626545548E-1
3.432676240E0,1.097535610E1,-5.602602959E-1,-5.243461728E-1
3.434677573E0,1.077902508E1,-5.482889414E-1,-5.291347504E-1
3.436678939E0,1.044622135E1,-6.009629965E-1,-4.908263385E-1
3.438682639E0,1.016848469E1,-6.440598965E-1,-4.118152559E-1
3.440683972E0,1.006074238E1,-6.703969240E-1,-3.543526828E-1
3.442685305E0,9.847652435E0,-7.494080067E-1,-1.915419847E-1
3.444686671E0,9.675264359E0,-8.595446348E-1,-4.788549617E-2
3.446688004E0,9.620196342E0,-8.930644989E-1,3.591412306E-2
3.448689304E0,9.493299484E0,-1.017566800E0,2.394274771E-1
3.450690670E0,9.488511086E0,-1.060663700E0,3.447755575E-1
3.452692003E0,9.392740250E0,-1.189954638E0,5.387118459E-1
3.454693369E0,9.332882881E0,-1.324033976E0,7.230709791E-1
3.456694702E0,9.301757812E0,-1.374313712E0,7.853221297E-1
3.458696068E0,9.246688843E0,-1.482056141E0,9.265843630E-1
3.460697368E0,9.205986977E0,-1.570644259E0,1.015172482E0
3.462704201E0,9.191620827E0,-1.611346960E0,1.053480864E0
3.464705534E0,9.179649353E0,-1.704723716E0,1.096577883E0
3.466706834E0,9.165284157E0,-1.786128998E0,1.154040456E0
3.468708167E0,9.155706406E0,-1.841197371E0,1.161223292E0
3.470709233E0,9.186832428E0,-1.891477108E0,1.173194647E0
3.472710599E0,9.191620827E0,-1.932179809E0,1.197137356E0
3.474711632E0,9.222746849E0,-1.946545362E0,1.206714511E0
3.476712998E0,9.251478195E0,-1.987248063E0,1.199531674E0
3.478714331E0,9.251478195E0,-2.020767927E0,1.173194647E0
3.480715664E0,9.282603264E0,-2.111750364E0,1.130097747E0
3.482717030E0,9.301757812E0,-2.197944164E0,1.048692346E0
3.484718763E0,9.320911407E0,-2.248224020E0,1.015172482E0
3.486720363E0,9.311334610E0,-2.343995094E0,9.098244309E-1
3.488721696E0,9.332882881E0,-2.454131603E0,7.853221297E-1
3.490723062E0,9.320911407E0,-2.516382933E0,7.039167881E-1
3.492724628E0,9.301757812E0,-2.626519442E0,5.267404318E-1
3.494725994E0,9.229928970E0,-2.724684715E0,3.495641351E-1
3.496727327E0,9.179649353E0,-2.770175934E0,2.657645047E-1
3.500729293E0,9.004867554E0,-3.067065954E0,-5.027977005E-2
3.502730793E0,8.990502357E0,-3.129317284E0,-2.442160249E-1
3.504732126E0,8.889942169E0,-3.263396502E0,-3.902668059E-1
3.506733759E0,8.820508003E0,-3.308887720E0,-4.764606953E-1
3.508735092E0,8.688823700E0,-3.447755814E0,-6.273000240E-1
3.510739992E0,8.542772293E0,-3.581835032E0,-7.494080067E-1
3.512741325E0,8.475732803E0,-3.632114887E0,-8.068706393E-1
3.514742658E0,8.308133125E0,-3.739857197E0,-9.026415944E-1
3.516750858E0,8.162082672E0,-3.842811108E0,-1.005595446E0
3.518752224E0,8.109408379E0,-3.902667999E0,-1.053480864E0
3.520753590E0,8.020820618E0,-4.003227711E0,-1.115732074E0
3.524750822E0,7.977723598E0,-4.146883965E0,-1.194743156E0
3.526752188E0,7.965752125E0,-4.254626274E0,-1.216291547E0
3.528759588E0,7.987300873E0,-4.316877365E0,-1.249811411E0
3.530760921E0,8.006455421E0,-4.326454639E0,-1.247417212E0
3.532762221E0,8.090254784E0,-4.352791786E0,-1.249811411E0
3.534763587E0,8.164477348E0,-4.359974384E0,-1.245022893E0
3.536764887E0,8.332076073E0,-4.336031914E0,-1.211503029E0
3.538766187E0,8.530800819E0,-4.249837875E0,-1.182771802E0
3.540767520E0,8.633754730E0,-4.168432236E0,-1.144463301E0
3.542768820E0,8.861210823E0,-3.984073162E0,-1.079817891E0
3.544769720E0,9.136552811E0,-3.754222870E0,-1.012778282E0
3.546771053E0,9.287391663E0,-3.644086361E0,-9.768640995E-1
3.548772119E0,9.605830193E0,-3.399870157E0,-9.026415944E-1
3.550773452E0,9.787795067E0,-3.244242430E0,-8.667274714E-1
3.552774818E0,1.016848469E1,-2.942563772E0,-7.541965842E-1
3.554776118E0,1.059227180E1,-2.660039425E0,-6.680026650E-1
3.556777451E0,1.081015110E1,-2.516382933E0,-6.249057055E-1
3.558778784E0,1.127942848E1,-2.219492674E0,-5.051919818E-1
3.562779616E0,1.201207638E1,-1.778946161E0,-3.375927508E-1
3.564780982E0,1.251008606E1,-1.496421814E0,-2.226675600E-1
3.566782048E0,1.295302677E1,-1.223474383E0,-7.422251999E-2
3.568783414E0,1.314935684E1,-1.041509509E0,-1.675992459E-2
3.572783513E0,1.375032043E1,-5.818088055E-1,2.035133541E-1
3.574784846E0,1.406397057E1,-2.729473412E-1,3.639297783E-1
3.578780712E0,1.439916897E1,1.101366431E-1,5.770202279E-1
3.580782045E0,1.451648808E1,3.878725171E-1,7.110996246E-1
3.582783378E0,1.455958557E1,6.249057055E-1,7.996878028E-1
3.584784678E0,1.454282475E1,7.206767201E-1,8.475732803E-1
3.586786011E0,1.442550564E1,9.289786220E-1,8.906702399E-1
3.590782610E0,1.413819313E1,1.175588965E0,9.577099085E-1
3.592783976E0,1.385087967E1,1.300091267E0,9.912297726E-1
3.594785309E0,1.355159569E1,1.381496549E0,9.984126091E-1
3.596786675E0,1.337441921E1,1.417410731E0,9.864411950E-1
3.598788075E0,1.302246094E1,1.494027495E0,9.241901040E-1
3.600789341E0,1.285007286E1,1.508393168E0,9.074301720E-1
3.602790707E0,1.247177792E1,1.527547359E0,8.379961848E-1
3.604792073E0,1.215333939E1,1.534730196E0,7.422251701E-1
3.606793406E0,1.197137451E1,1.517970204E0,6.751855016E-1
3.608795039E0,1.164096451E1,1.470084786E0,5.626545548E-1
3.610796372E0,1.132491970E1,1.419804931E0,4.597007632E-1
3.612797672E0,1.119802284E1,1.386285067E0,4.213923812E-1
3.614799038E0,1.088676739E1,1.309668303E0,3.280156553E-1
3.616800438E0,1.060663700E1,1.242628574E0,2.609759569E-1
3.618801804E0,1.048452950E1,1.197137356E0,2.466102988E-1
3.620803170E0,1.025467873E1,1.103760719E0,2.370332032E-1
3.622804536E0,1.013975334E1,1.075029373E0,2.681587934E-1
3.624805869E0,9.835680962E0,9.241901040E-1,3.519583941E-1
3.626807202E0,9.751881599E0,8.786988258E-1,3.974496126E-1
3.628808535E0,9.620196342E0,8.356019258E-1,4.573064744E-1
3.630809835E0,9.366402626E0,7.589851022E-1,6.009629965E-1
3.632811135E0,9.107821465E0,6.488484740E-1,7.158881426E-1
3.634812501E0,8.980924606E0,5.913859010E-1,7.996878028E-1
3.636813834E0,8.753468513E0,4.549122155E-1,9.194015265E-1
3.638815167E0,8.581081390E0,3.351984620E-1,1.043903828E0
3.640816533E0,8.449396133E0,2.657645047E-1,1.101366401E0
3.642817866E0,8.219545364E0,1.412622184E-1,1.163617611E0
3.644819232E0,8.118986130E0,2.633702382E-2,1.182771802E0
3.646820598E0,7.903501034E0,-5.506832153E-2,1.213897347E0
3.648821964E0,7.707170486E0,-1.867534369E-1,1.237840056E0
3.650823297E0,7.620976925E0,-2.442160249E-1,1.225868702E0
3.652824663E0,7.462954521E0,-3.639297783E-1,1.201925993E0
3.654826029E0,7.319298267E0,-4.812492430E-1,1.185166001E0
3.656827362E0,7.235498428E0,-5.458946824E-1,1.185166001E0
3.658828662E0,7.096630573E0,-6.488484740E-1,1.163617611E0
3.660830095E0,6.895511627E0,-7.422251701E-1,1.134886265E0
3.662831461E0,6.806923389E0,-8.092648983E-1,1.118126392E0
3.664832827E0,6.620169640E0,-8.978530765E-1,1.063058019E0
3.666834160E0,6.431022167E0,-9.744698405E-1,1.034326673E0
3.668835526E0,6.354405403E0,-1.029538155E0,1.041509509E0
3.670836892E0,6.170046329E0,-1.075029373E0,9.984126091E-1
3.672838258E0,6.086246490E0,-1.113337755E0,9.888355136E-1
3.674839624E0,5.930618763E0,-1.146857619E0,9.840469360E-1
3.676840890E0,5.755836487E0,-1.201925993E0,9.840469360E-1
3.678842223E0,5.681613922E0,-1.221080184E0,9.936240315E-1
3.680843589E0,5.578660488E0,-1.228263021E0,1.005595446E0
3.682844922E0,5.454157829E0,-1.240234375E0,1.034326673E0
3.684846222E0,5.355992794E0,-1.216291547E0,1.067846537E0
3.686847855E0,5.315289974E0,-1.192348838E0,1.082212210E0
3.688849221E0,5.276981831E0,-1.182771802E0,1.115732074E0
3.690849587E0,5.221913338E0,-1.154040456E0,1.144463301E0
3.692850987E0,5.185999393E0,-1.127703428E0,1.166011810E0
3.694852320E0,5.164450645E0,-1.079817891E0,1.194743156E0
3.696853620E0,5.147690773E0,-1.012778282E0,1.211503029E0
3.698854986E0,5.133325100E0,-9.241901040E-1,1.266571403E0
3.700856319E0,5.140508175E0,-9.074301720E-1,1.278542757E0
3.702857652E0,5.183605194E0,-8.236305118E-1,1.297696948E0
3.704859018E0,5.217124939E0,-7.350423932E-1,1.321639657E0
3.706860351E0,5.231490612E0,-6.847625971E-1,1.314456820E0
3.708861684E0,5.224307537E0,-6.201171875E-1,1.352765322E0
3.710863017E0,5.281770229E0,-4.956148863E-1,1.383890867E0
3.712864350E0,5.329655647E0,-4.429408312E-1,1.400650740E0
3.714865683E0,5.391906738E0,-3.663240373E-1,1.410227895E0
3.716867016E0,5.437397957E0,-2.657645047E-1,1.424593568E0
3.718869082E0,5.492466450E0,-2.250618339E-1,1.434170604E0
3.720870415E0,5.554717541E0,-1.005595401E-1,1.443747759E0
3.722871748E0,5.609786034E0,-5.027977005E-2,1.441353440E0
3.724873081E0,5.672037125E0,3.591412306E-2,1.465296149E0
3.726874447E0,5.715134144E0,5.985686928E-2,1.472478986E0
3.728875747E0,5.772596359E0,8.379961550E-2,1.458113313E0
3.730877080E0,5.834847927E0,1.412622184E-1,1.458113313E0
3.732878446E0,5.894704342E0,2.226675600E-1,1.479661822E0
3.734879779E0,5.928224564E0,2.466102988E-1,1.472478986E0
3.736881112E0,6.009629726E0,3.328042030E-1,1.496421814E0
3.738882478E0,6.079063892E0,4.094209969E-1,1.467690468E0
3.740889644E0,6.110189438E0,4.405465722E-1,1.477267504E0
3.742890944E0,6.158074856E0,4.884320498E-1,1.486844659E0
3.744892344E0,6.189200401E0,5.411061049E-1,1.491633177E0
3.746893410E0,6.184412003E0,5.650488734E-1,1.482056141E0
3.748894710E0,6.179623127E0,5.602602959E-1,1.467690468E0
3.750896110E0,6.170046329E0,5.698373914E-1,1.450930476E0
3.752897443E0,6.158074856E0,5.578660369E-1,1.398256540E0
3.754898776E0,6.138920784E0,5.411061049E-1,1.345582485E0
3.756900176E0,6.124555111E0,5.315290093E-1,1.324033976E0
3.758901509E0,6.105400562E0,4.908263385E-1,1.297696948E0
3.760902842E0,6.081458092E0,4.620950520E-1,1.242628574E0
3.762903908E0,6.047938347E0,4.453351200E-1,1.218685865E0
3.764905241E0,6.045543671E0,4.022381604E-1,1.182771802E0
3.766906574E0,6.045543671E0,3.447755575E-1,1.161223292E0
3.768907940E0,6.038361073E0,3.256213665E-1,1.106154919E0
3.770909273E0,6.021601200E0,2.657645047E-1,1.075029373E0
3.772910606E0,6.021601200E0,2.322446555E-1,1.055875182E0
3.774911972E0,6.031178474E0,1.795706153E-1,1.043903828E0
3.776913338E0,6.040755272E0,1.125309169E-1,1.048692346E0
3.778913971E0,6.050332546E0,1.005595401E-1,1.029538155E0
3.780915304E0,6.064698219E0,4.549122229E-2,1.039115310E0
3.782916637E0,6.107795238E0,-2.633702382E-2,1.079817891E0
3.784917970E0,6.124555111E0,-6.703969836E-2,1.110943556E0
3.786919336E0,6.196382999E0,-1.628106833E-1,1.177983165E0
3.788920702E0,6.296942711E0,-2.537931204E-1,1.235445857E0
3.790922402E0,6.337645531E0,-3.040728867E-1,1.268965602E0
3.792923702E0,6.431022167E0,-3.974496126E-1,1.362342358E0
3.794925035E0,6.486090660E0,-4.477293789E-1,1.415016413E0
3.796926401E0,6.608198643E0,-5.435003638E-1,1.527547359E0
3.798927734E0,6.754249096E0,-6.608198285E-1,1.611346960E0
3.802924634E0,6.957762718E0,-7.972934842E-1,1.778946161E0
3.804925967E0,7.084659100E0,-9.122186899E-1,1.877111435E0
3.806927300E0,7.168458939E0,-9.385557175E-1,1.917814136E0
3.808928700E0,7.304932594E0,-1.027143836E0,2.015979290E0
3.810935300E0,7.453377247E0,-1.113337755E0,2.102173328E0
3.812936633E0,7.527599812E0,-1.156434774E0,2.140481710E0
3.814937999E0,7.676044941E0,-1.228263021E0,2.236252785E0
3.816939332E0,7.767027378E0,-1.304879785E0,2.281744003E0
3.818940665E0,7.944203854E0,-1.362342358E0,2.399063349E0
3.820941998E0,8.114197731E0,-1.426987767E0,2.485257149E0
3.822943631E0,8.200390816E0,-1.467690468E0,2.516382933E0
3.824944931E0,8.389538765E0,-1.522758722E0,2.602576733E0
3.826946297E0,8.566715240E0,-1.577827096E0,2.693559170E0
3.828947630E0,8.650514603E0,-1.623318315E0,2.762993097E0
3.830948996E0,8.832479477E0,-1.678386688E0,2.849187136E0
3.832950329E0,9.004867554E0,-1.740637779E0,2.952140808E0
3.834951595E0,9.095849991E0,-1.745426297E0,2.976083517E0
3.836953095E0,9.237112045E0,-1.800494671E0,3.071854591E0
3.838954828E0,9.378374100E0,-1.824437380E0,3.122134447E0
3.840956194E0,9.457385063E0,-1.826831698E0,3.138894320E0
3.842957494E0,9.584281921E0,-1.855562925E0,3.203539610E0
3.844958860E0,9.656110764E0,-1.877111435E0,3.232270956E0
3.846960193E0,9.785401344E0,-1.889082789E0,3.294522047E0
3.848961526E0,9.885960579E0,-1.898659945E0,3.332830429E0
3.850962526E0,9.917086601E0,-1.891477108E0,3.344801903E0
3.852963892E0,9.964971542E0,-1.867534399E0,3.368744612E0
3.854965225E0,1.001046276E1,-1.836408734E0,3.378321648E0
3.856966558E0,1.002961731E1,-1.824437380E0,3.392687321E0
3.858967858E0,1.002243423E1,-1.766974807E0,3.368744612E0
3.860969191E0,1.002961731E1,-1.707117915E0,3.344801903E0
3.862970491E0,1.002482891E1,-1.678386688E0,3.330436230E0
3.864971791E0,1.000567436E1,-1.594586968E0,3.301704884E0
3.866973857E0,9.984126091E0,-1.508393168E0,3.270579338E0
3.868975190E0,9.950606346E0,-1.467690468E0,3.227482557E0
3.872972589E0,9.897932053E0,-1.352765322E0,3.155654192E0
3.874973889E0,9.845257759E0,-1.252205729E0,3.110162973E0
3.876974955E0,9.780612946E0,-1.177983165E0,3.055094719E0
3.878976321E0,9.735121727E0,-1.125309110E0,3.016786337E0
3.880977654E0,9.692024231E0,-1.053480864E0,2.959323645E0
3.882978987E0,9.651321411E0,-9.720755816E-1,2.873129845E0
3.884980053E0,9.617801666E0,-9.337671995E-1,2.849187136E0
3.886981386E0,9.574705124E0,-8.667274714E-1,2.770175934E0
3.888982686E0,9.548367500E0,-7.996878028E-1,2.741444588E0
3.890984052E0,9.505270958E0,-7.805336118E-1,2.669616461E0
3.892985385E0,9.476539612E0,-7.613793612E-1,2.616942406E0
3.894986785E0,9.459779739E0,-7.470137477E-1,2.583422422E0
3.896987985E0,9.402317047E0,-7.661679387E-1,2.506805658E0
3.898988951E0,9.340065956E0,-8.068706393E-1,2.468497276E0
3.900994984E0,9.313729286E0,-8.236305118E-1,2.427794695E0
3.902996350E0,9.284997940E0,-8.858816624E-1,2.351177931E0
3.904997683E0,9.253871918E0,-9.505270720E-1,2.322446585E0
3.907003416E0,9.258660316E0,-1.010383964E0,2.315263748E0
3.909004749E0,9.246688843E0,-1.103760719E0,2.343995094E0
3.911006049E0,9.261054993E0,-1.213897347E0,2.353572130E0
3.913007382E0,9.292180061E0,-1.280937076E0,2.370332003E0
3.915008748E0,9.313729286E0,-1.398256540E0,2.396669149E0
3.917010081E0,9.320911407E0,-1.448536277E0,2.434977531E0
3.919011447E0,9.359220505E0,-1.556278586E0,2.516382933E0
3.921012813E0,9.419076920E0,-1.656838179E0,2.648067951E0
3.923014179E0,9.459779739E0,-1.721483588E0,2.715107679E0
3.925015879E0,9.500482559E0,-1.798100352E0,2.882706881E0
3.927016512E0,9.574705124E0,-1.877111435E0,3.081431627E0
3.929017845E0,9.613013268E0,-1.905842781E0,3.191568375E0
3.931019211E0,9.680052757E0,-1.944151163E0,3.399870157E0
3.933020544E0,9.759063721E0,-1.970488191E0,3.610566378E0
3.935023144E0,9.811738014E0,-1.984853864E0,3.715914488E0
3.937024744E0,9.912297249E0,-1.970488191E0,3.926610708E0
3.939026077E0,9.981731415E0,-1.915419817E0,4.015198708E0
3.941027410E0,1.011820507E1,-1.889082789E0,4.192375183E0
3.943028776E0,1.024510193E1,-1.774157643E0,4.331243038E0
3.945030442E0,1.034087276E1,-1.735849261E0,4.395888329E0
3.947031775E0,1.049889469E1,-1.623318315E0,4.472505569E0
3.949033175E0,1.069283104E1,-1.460507631E0,4.498842239E0
3.951034508E0,1.079339123E1,-1.374313712E0,4.494053841E0
3.953035841E0,1.104239559E1,-1.197137356E0,4.424619675E0
3.955037174E0,1.130815983E1,-1.034326673E0,4.338426113E0
3.957038507E0,1.145421028E1,-9.217957854E-1,4.261809349E0
3.959039807E0,1.175828362E1,-7.230709791E-1,4.096604347E0
3.963037806E0,1.223953247E1,-4.453351200E-1,3.794925690E0
3.965039106E0,1.255318260E1,-2.537931204E-1,3.569863796E0
3.969037405E0,1.298654652E1,2.873129770E-2,3.160442829E0
3.971038771E0,1.330019665E1,1.795706153E-1,2.875524044E0
3.973040137E0,1.345821857E1,2.609759569E-1,2.734261751E0
3.975041437E0,1.378862858E1,3.926610649E-1,2.439765930E0
3.977042803E0,1.409509563E1,5.363175869E-1,2.080624819E0
3.979044169E0,1.425551224E1,5.961744189E-1,1.896265626E0
3.981045469E0,1.456197929E1,7.158881426E-1,1.491633177E0
3.983046935E0,1.486126328E1,8.379961848E-1,1.084606528E0
3.985047935E0,1.517730808E1,9.409499764E-1,6.632141471E-1
3.987049268E0,1.531378174E1,9.984126091E-1,4.549122155E-1
3.989050601E0,1.545025539E1,1.079817891E0,2.442160249E-1
3.991052067E0,1.571841431E1,1.115732074E0,-1.364736706E-1
3.993053433E0,1.595784187E1,1.156434774E0,-5.961744189E-1
3.995053533E0,1.605840111E1,1.161223292E0,-8.236305118E-1
3.997054866E0,1.623318291E1,1.120520592E0,-1.233051538E0
3.999056199E0,1.628106880E1,1.127703428E0,-1.616135478E0
4.001057565E0,1.626430893E1,1.151646137E0,-1.790917516E0
4.003058898E0,1.622599983E1,1.120520592E0,-2.109356165E0
4.005060198E0,1.616614342E1,1.098972082E0,-2.367937803E0
4.007061531E0,1.609192085E1,1.096577883E0,-2.473285913E0
4.009062864E0,1.593868732E1,1.058269501E0,-2.643279314E0
4.011064164E0,1.569686604E1,1.024749637E0,-2.676799297E0
4.013065530E0,1.548377514E1,1.024749637E0,-2.753416061E0
4.015066896E0,1.497618866E1,1.067846537E0,-2.755810261E0
4.017068229E0,1.471760750E1,1.094183564E0,-2.715107679E0
4.019069595E0,1.409749031E1,1.194743156E0,-2.528354168E0
4.021070928E0,1.351807594E1,1.316851139E0,-2.327235222E0
4.023072294E0,1.326428223E1,1.371919513E0,-2.178790092E0
4.025073694E0,1.280218697E1,1.534730196E0,-1.845985889E0
4.027075027E0,1.243825722E1,1.709512234E0,-1.515576005E0
4.029076393E0,1.225389862E1,1.807677507E0,-1.362342358E0
4.031077759E0,1.195940304E1,2.018373728E0,-1.087000728E0
4.033079059E0,1.171518707E1,2.262589693E0,-8.188419938E-1
4.035080425E0,1.161941528E1,2.394274712E0,-7.254652381E-1
4.037081758E0,1.143984509E1,2.676799297E0,-6.033572555E-1
4.039083091E0,1.141590214E1,2.822849989E0,-5.578660369E-1
4.041084424E0,1.137041092E1,3.155654192E0,-5.291347504E-1
4.043085657E0,1.137759399E1,3.502824068E0,-5.291347504E-1
4.045087023E0,1.143266201E1,3.857176781E0,-5.650488734E-1
4.047088323E0,1.145899963E1,4.048718929E0,-6.081457734E-1
4.049089656E0,1.151167297E1,4.379128456E0,-7.063110471E-1
4.051090889E0,1.153322220E1,4.520390987E0,-7.422251701E-1
4.053092189E0,1.158589554E1,4.788549423E0,-8.260248303E-1
4.055093555E0,1.164096451E1,4.960937500E0,-9.026415944E-1
4.057094921E0,1.167208958E1,5.037554264E0,-9.409499764E-1
4.059096221E0,1.169603252E1,5.164450645E0,-9.696813226E-1
4.061097587E0,1.170800400E1,5.217124939E0,-9.744698405E-1
4.063098887E0,1.171518707E1,5.219519138E0,-9.768640995E-1
4.065100220E0,1.175349522E1,5.181210518E0,-9.265843630E-1
4.067101553E0,1.177504349E1,5.118959427E0,-8.475732803E-1
4.069102886E0,1.178701496E1,4.968120098E0,-7.182824612E-1
4.071104252E0,1.182771778E1,4.762212753E0,-5.698373914E-1
4.073105618E0,1.185405445E1,4.606584549E0,-5.027977228E-1
4.075106951E0,1.192109394E1,4.273780346E0,-3.280156553E-1
4.077108117E0,1.203362560E1,3.888302326E0,-2.083019018E-1
4.079109483E0,1.205038548E1,3.672817469E0,-1.532335877E-1
4.081110816E0,1.211263657E1,3.258608103E0,-7.422251999E-2
4.083112149E0,1.216291618E1,2.820455790E0,-2.154847234E-2
4.085113482E0,1.217249298E1,2.624125242E0,-1.436564885E-2
4.087114815E0,1.217249298E1,2.250618219E0,-3.591412306E-2
4.089116181E0,1.215812778E1,2.059076309E0,-6.225114316E-2
4.091117481E0,1.219164753E1,1.726272106E0,-1.604164094E-1
4.093121281E0,1.224911022E1,1.426987767E0,-2.657645047E-1
4.095122647E0,1.231614971E1,1.297696948E0,-3.040728867E-1
4.097124013E0,1.239994907E1,1.039115310E0,-4.261809289E-1
4.099125346E0,1.252923965E1,7.996878028E-1,-5.147690773E-1
4.101126712E0,1.260346222E1,6.751855016E-1,-5.626545548E-1
4.103128045E0,1.279261017E1,4.118152559E-1,-6.225114465E-1
4.105129345E0,1.301767254E1,1.699935049E-1,-6.919454336E-1
4.107130745E0,1.313259697E1,5.506832153E-2,-6.919454336E-1
4.109132078E0,1.333850479E1,-1.675992310E-1,-6.991282701E-1
4.111133378E0,1.344864178E1,-3.160442710E-1,-6.967339516E-1
4.113134778E0,1.356117249E1,-5.291347504E-1,-6.560313106E-1
4.115136111E0,1.355638409E1,-7.541965842E-1,-6.081457734E-1
4.117137411E0,1.363778973E1,-9.361614585E-1,-5.482889414E-1
4.119138811E0,1.380299473E1,-1.261782765E0,-4.549122155E-1
4.121140144E0,1.390355396E1,-1.580221415E0,-3.806896806E-1
4.123141510E0,1.393228531E1,-1.752609134E0,-3.280156553E-1
4.125142910E0,1.397298813E1,-2.044710636E0,-2.753416002E-1
4.127144243E0,1.399932480E1,-2.382303476E0,-2.106961906E-1
4.129145576E0,1.400650787E1,-2.537931204E0,-1.867534369E-1
4.131146942E0,1.404242134E1,-2.875524044E0,-1.628106833E-1
4.133148975E0,1.410467243E1,-3.213116884E0,-1.340793967E-1
4.135150308E0,1.410946178E1,-3.359167576E0,-1.221080124E-1
4.137151808E0,1.405918121E1,-3.622537851E0,-7.422251999E-2
4.139153141E0,1.401608467E1,-3.737462997E0,-5.746259540E-2
4.141155174E0,1.384130287E1,-3.902667999E0,-2.394274808E-2
4.143156540E0,1.349652672E1,-3.945764780E0,9.577099234E-3
4.145157873E0,1.329540825E1,-3.955342054E0,3.112557158E-2
4.147159206E0,1.286443901E1,-3.907456398E0,1.221080124E-1
4.149160539E0,1.251247978E1,-3.806896925E0,2.466102988E-1
4.151161905E0,1.234488106E1,-3.742251635E0,3.304099143E-1
4.155162105E0,1.187799740E1,-3.426207304E0,6.392713785E-1
4.157163438E0,1.177743816E1,-3.318464994E0,7.230709791E-1
4.159164804E0,1.159786701E1,-3.083826065E0,9.050358534E-1
4.161166170E0,1.149970150E1,-2.959323645E0,9.720755816E-1
4.163167503E0,1.130337143E1,-2.698347807E0,1.096577883E0
4.165168903E0,1.109746361E1,-2.434977531E0,1.230657220E0
4.167170236E0,1.100648117E1,-2.315263748E0,1.268965602E0
4.169171602E0,1.079099655E1,-2.042316437E0,1.319245458E0
4.171173002E0,1.058508873E1,-1.764580488E0,1.347976685E0
4.173174335E0,1.048452950E1,-1.620923996E0,1.350371003E0
4.175175668E0,1.023791885E1,-1.355159521E0,1.319245458E0
4.177177068E0,9.950606346E0,-1.077423692E0,1.225868702E0
4.179178401E0,9.811738014E0,-9.385557175E-1,1.185166001E0
4.181179701E0,9.596253395E0,-6.656084061E-1,1.065452337E0
4.183181067E0,9.457385063E0,-4.261809289E-1,1.007989645E0
4.185182367E0,9.222746849E0,-3.016786277E-1,8.763045669E-1
4.187183733E0,8.964164734E0,-5.985686928E-2,7.685621977E-1
4.189185099E0,8.851634026E0,5.506832153E-2,7.182824612E-1
4.191187699E0,8.614601135E0,2.801301479E-1,6.368771195E-1
4.193188332E0,8.377567291E0,5.171633363E-1,6.009629965E-1
4.195189698E0,8.269824982E0,6.296942830E-1,5.578660369E-1
4.197191064E0,8.066311836E0,8.619389534E-1,5.099805593E-1
4.199192397E0,7.927443981E0,1.075029373E0,4.620950520E-1
4.201193163E0,7.858009815E0,1.177983165E0,4.644893110E-1
4.203194463E0,7.709564686E0,1.383890867E0,4.860377908E-1
4.205195763E0,7.589851379E0,1.568249941E0,4.884320498E-1
4.207197129E0,7.513234138E0,1.668809533E0,4.956148863E-1
4.209198462E0,7.393520832E0,1.845985889E0,5.147690773E-1
4.211199795E0,7.326480865E0,1.944151163E0,5.291347504E-1
4.213201161E0,7.194795609E0,2.059076309E0,5.722316504E-1
4.215202527E0,7.120573044E0,2.190761566E0,6.249057055E-1
4.217203860E0,7.087053299E0,2.253012657E0,6.703969240E-1
4.219205193E0,6.986494064E0,2.322446585E0,7.326480746E-1
4.221206526E0,6.864386082E0,2.439765930E0,7.709565163E-1
4.223207859E0,6.794951916E0,2.461314440E0,7.805336118E-1
4.225208925E0,6.703969479E0,2.511594296E0,8.332076073E-1
4.227210225E0,6.603409767E0,2.549902678E0,9.050358534E-1
4.229211558E0,6.557918549E0,2.557085514E0,9.194015265E-1
4.231212891E0,6.464541912E0,2.571451187E0,9.672870040E-1
4.233214191E0,6.375953674E0,2.542719841E0,1.024749637E0
4.235215524E0,6.330462456E0,2.547508478E0,1.060663700E0
4.237216824E0,6.196382999E0,2.509200096E0,1.110943556E0
4.239218857E0,6.162863255E0,2.480468750E0,1.149251938E0
4.241220257E0,6.091034889E0,2.408640385E0,1.192348838E0
4.243221590E0,6.016812801E0,2.300898075E0,1.268965602E0
4.245222956E0,5.973715782E0,2.276955366E0,1.295302629E0
4.247224322E0,5.894704342E0,2.190761566E0,1.367130876E0
4.249225655E0,5.856396198E0,2.071047783E0,1.398256540E0
4.251229621E0,5.818087578E0,2.025556564E0,1.426987767E0
4.253230987E0,5.806116581E0,1.898659945E0,1.472478986E0
4.255232287E0,5.777385235E0,1.766974807E0,1.474873304E0
4.257233620E0,5.767807961E0,1.707117915E0,1.458113313E0
4.259234986E0,5.731894016E0,1.585009933E0,1.489238977E0
4.261236219E0,5.719922543E0,1.515576005E0,1.484450340E0
4.263237552E0,5.691191196E0,1.379102230E0,1.441353440E0
4.265238952E0,5.662459850E0,1.254600048E0,1.422199249E0
4.267240252E0,5.660065651E0,1.185166001E0,1.415016413E0
4.269241585E0,5.633728504E0,1.063058019E0,1.388679385E0
4.271243318E0,5.604997158E0,9.170072675E-1,1.367130876E0
4.273244651E0,5.583448887E0,8.715160489E-1,1.362342358E0
4.275245984E0,5.557111740E0,7.302538157E-1,1.359948039E0
4.277247317E0,5.537957668E0,6.368771195E-1,1.340793848E0
4.279248650E0,5.514014721E0,5.937801600E-1,1.345582485E0
4.281249983E0,5.475706577E0,4.812492430E-1,1.345582485E0
4.283251416E0,5.485283375E0,4.189980924E-1,1.340793848E0
4.285252982E0,5.446975231E0,2.226675600E-1,1.331216812E0
4.287254348E0,5.444581032E0,1.628106833E-1,1.328822494E0
4.289255681E0,5.435003757E0,1.245022863E-1,1.314456820E0
4.291256714E0,5.444581032E0,9.577099234E-3,1.290514112E0
4.293258080E0,5.437397957E0,-8.619388938E-2,1.292908430E0
4.295259413E0,5.449369431E0,-1.388679445E-1,1.278542757E0
4.297260779E0,5.425426483E0,-2.130904645E-1,1.245022893E0
4.299261445E0,5.384724140E0,-3.016786277E-1,1.218685865E0
4.301262778E0,5.396695614E0,-3.375927508E-1,1.213897347E0
4.303264111E0,5.399089813E0,-4.022381604E-1,1.180377483E0
4.305265444E0,5.394300938E0,-4.980091453E-1,1.170800328E0
4.307266744E0,5.391906738E0,-5.387118459E-1,1.132491946E0
4.309268044E0,5.399089813E0,-5.650488734E-1,1.125309110E0
4.313266843E0,5.411061287E0,-6.632141471E-1,1.065452337E0
4.315268209E0,5.420638084E0,-7.039167881E-1,1.053480864E0
4.317269575E0,5.413455486E0,-7.039167881E-1,1.051086664E0
4.319270908E0,5.420638084E0,-7.158881426E-1,1.029538155E0
4.321272241E0,5.427821159E0,-7.518022656E-1,1.007989645E0
4.323273641E0,5.439792156E0,-7.565908432E-1,9.936240315E-1
4.325274941E0,5.466129303E0,-7.446194887E-1,9.457385540E-1
4.327276307E0,5.466129303E0,-7.541965842E-1,9.217957854E-1
4.329277673E0,5.461340904E0,-7.709565163E-1,8.930644989E-1
4.331278606E0,5.485283375E0,-7.350423932E-1,8.763045669E-1
4.333279939E0,5.494860649E0,-7.158881426E-1,8.547561169E-1
4.335281305E0,5.478100777E0,-7.015225291E-1,8.308133483E-1
4.337282871E0,5.485283375E0,-6.799740195E-1,7.948992252E-1
4.339284171E0,5.502043724E0,-6.703969240E-1,7.853221297E-1
4.341285537E0,5.490072250E0,-6.225114465E-1,7.230709791E-1
4.343286770E0,5.514014721E0,-5.913859010E-1,6.895511150E-1
4.345288103E0,5.528380394E0,-5.746259689E-1,6.344828010E-1
4.347289469E0,5.537957668E0,-5.387118459E-1,6.249057055E-1
4.349291402E0,5.540351868E0,-5.171633363E-1,5.985686779E-1
4.351293035E0,5.525986195E0,-5.027977228E-1,5.865973234E-1
4.353294368E0,5.502043724E0,-4.597007632E-1,5.985686779E-1
4.355295734E0,5.511620522E0,-4.453351200E-1,6.081457734E-1
4.357297067E0,5.509226322E0,-4.285751879E-1,6.320885420E-1
4.359298367E0,5.518803596E0,-3.950553536E-1,6.608198285E-1
