"Time (s)","Acceleration x (m/s^2)","Acceleration y (m/s^2)","Acceleration z (m/s^2)"
1.340900000E-1,9.589070320E0,-3.615354896E-1,1.362342358E0
1.360915000E-1,9.589070320E0,-3.615354896E-1,1.362342358E0
1.380928330E-1,9.589070320E0,-3.615354896E-1,1.362342358E0
1.400940830E-1,8.657697678E0,-3.687183261E-1,-4.142095447E-1
1.420954830E-1,8.633754730E0,-3.687183261E-1,-4.022381604E-1
1.440968160E-1,8.588263512E0,-3.806896806E-1,-3.974496126E-1
1.460981010E-1,8.533195496E0,-3.926610649E-1,-3.926610649E-1
1.481004760E-1,8.502069473E0,-4.070267081E-1,-3.782954216E-1
1.501041420E-1,8.444606781E0,-4.142095447E-1,-4.022381604E-1
1.521044420E-1,8.415876389E0,-4.213923812E-1,-4.046324492E-1
1.541058050E-1,8.365595818E0,-4.237866402E-1,-4.046324492E-1
1.561063880E-1,8.308133125E0,-4.261809289E-1,-4.189980924E-1
1.581076950E-1,8.277008057E0,-4.261809289E-1,-4.166038036E-1
1.601111230E-1,8.226728439E0,-4.381522834E-1,-4.501236677E-1
1.621124560E-1,8.130957603E0,-4.620950520E-1,-4.549122155E-1
1.641137680E-1,8.085466385E0,-4.692778587E-1,-4.597007632E-1
1.661151200E-1,8.001666069E0,-4.764606953E-1,-4.980091453E-1
1.681164530E-1,7.917866707E0,-4.740664065E-1,-5.195576549E-1
1.701177680E-1,7.893924236E0,-5.004034638E-1,-5.411061049E-1
1.721191180E-1,7.834067345E0,-5.027977228E-1,-5.794144869E-1
1.741203560E-1,7.774210453E0,-5.171633363E-1,-6.201171875E-1
1.761217190E-1,7.733507633E0,-5.267404318E-1,-6.201171875E-1
1.781230660E-1,7.664073467E0,-5.387118459E-1,-6.799740195E-1
1.801243990E-1,7.620976925E0,-5.506832004E-1,-7.039167881E-1
1.821257590E-1,7.544359684E0,-5.578660369E-1,-7.326480746E-1
1.841267200E-1,7.486897469E0,-6.129343510E-1,-7.661679387E-1
1.861280530E-1,7.448588848E0,-5.985686779E-1,-7.805336118E-1
1.881294100E-1,7.398309231E0,-6.105400920E-1,-8.212362528E-1
1.901307540E-1,7.333663940E0,-6.057515144E-1,-8.667274714E-1
1.921320870E-1,7.307326794E0,-6.273000240E-1,-8.906702399E-1
1.941334530E-1,7.240286827E0,-6.536370516E-1,-9.361614585E-1
1.961345860E-1,7.187613010E0,-6.584255695E-1,-9.696813226E-1
1.981359190E-1,7.166064739E0,-6.799740195E-1,-9.840469360E-1
2.001372850E-1,7.091842175E0,-6.919454336E-1,-1.019961119E0
2.021382850E-1,7.072687626E0,-7.039167881E-1,-1.031932473E0
2.041396180E-1,7.020013809E0,-7.134938836E-1,-1.096577883E0
2.061409840E-1,6.979310989E0,-7.278595567E-1,-1.144463301E0
2.081420500E-1,6.962551117E0,-7.302538157E-1,-1.142069101E0
2.101426830E-1,6.914665699E0,-7.565908432E-1,-1.189954638E0
2.121443830E-1,6.871568680E0,-7.685621977E-1,-1.199531674E0
2.141457160E-1,6.845231533E0,-7.853221297E-1,-1.218685865E0
2.161473490E-1,6.814105988E0,-8.044763207E-1,-1.254600048E0
2.181487150E-1,6.771008968E0,-8.284190893E-1,-1.302485466E0
2.201490810E-1,6.763826370E0,-8.332076073E-1,-1.328822494E0
2.221504140E-1,6.732700825E0,-8.332076073E-1,-1.338399649E0
2.241517800E-1,6.725517750E0,-8.547561169E-1,-1.352765322E0
2.261531130E-1,6.720729351E0,-8.786988258E-1,-1.359948039E0
2.281544460E-1,6.708757877E0,-8.715160489E-1,-1.405439258E0
2.301558120E-1,6.713546753E0,-8.739103079E-1,-1.441353440E0
2.321571450E-1,6.742278099E0,-8.810931444E-1,-1.462901950E0
2.341584780E-1,6.773403645E0,-8.715160489E-1,-1.501210332E0
2.361598110E-1,6.794951916E0,-8.786988258E-1,-1.527547359E0
2.381611440E-1,6.821289062E0,-8.739103079E-1,-1.568249941E0
2.401624770E-1,6.881145954E0,-8.595446348E-1,-1.642472506E0
2.421638100E-1,6.890722752E0,-8.595446348E-1,-1.664021015E0
2.441654760E-1,6.964945316E0,-8.403904438E-1,-1.692752242E0
2.461668420E-1,7.027196407E0,-8.451790214E-1,-1.745426297E0
2.481681750E-1,7.079870701E0,-8.427847624E-1,-1.783734679E0
2.501695080E-1,7.149304390E0,-8.475732803E-1,-1.829225898E0
2.521708740E-1,7.170853138E0,-8.379961848E-1,-1.845985889E0
2.541722070E-1,7.242681503E0,-8.212362528E-1,-1.884294271E0
2.561737400E-1,7.314509392E0,-7.853221297E-1,-1.929785490E0
2.581751060E-1,7.350423813E0,-7.685621977E-1,-1.936968327E0
2.601764390E-1,7.446194649E0,-7.302538157E-1,-1.963305354E0
2.621781050E-1,7.544359684E0,-7.326480746E-1,-1.994430900E0
2.641794710E-1,7.585062504E0,-7.350423932E-1,-1.994430900E0
2.661812370E-1,7.668862343E0,-6.943396926E-1,-2.025556564E0
2.681825700E-1,7.752661705E0,-6.033572555E-1,-2.030344963E0
2.701839360E-1,7.795758724E0,-6.009629965E-1,-2.056682110E0
2.721852690E-1,7.934626579E0,-6.129343510E-1,-2.092596292E0
2.741913020E-1,8.066311836E0,-5.913859010E-1,-2.138087511E0
2.761926680E-1,8.099831581E0,-5.889915824E-1,-2.145270348E0
2.781937010E-1,8.181237221E0,-5.722316504E-1,-2.164424419E0
2.801950340E-1,8.207573891E0,-5.650488734E-1,-2.183578730E0
2.821964000E-1,8.269824982E0,-5.698373914E-1,-2.209915638E0
2.841977330E-1,8.334470749E0,-5.315290093E-1,-2.248224020E0
2.861990660E-1,8.370385170E0,-5.291347504E-1,-2.262589693E0
2.882004320E-1,8.423058510E0,-5.027977228E-1,-2.317657948E0
2.902017650E-1,8.478127480E0,-4.812492430E-1,-2.363149166E0
2.922030980E-1,8.502069473E0,-4.692778587E-1,-2.387091875E0
2.942045310E-1,8.564320564E0,-4.692778587E-1,-2.415823221E0
2.962058640E-1,8.621783257E0,-4.884320498E-1,-2.451737404E0
2.982071970E-1,8.640937805E0,-4.980091453E-1,-2.454131603E0
3.002085630E-1,8.643332481E0,-4.884320498E-1,-2.473285913E0
3.022098960E-1,8.650514603E0,-5.004034638E-1,-2.494834423E0
3.042112290E-1,8.655303001E0,-5.075862408E-1,-2.492439985E0
3.062125620E-1,8.655303001E0,-5.435003638E-1,-2.521171331E0
3.082138950E-1,8.655303001E0,-5.363175869E-1,-2.523565531E0
3.102152280E-1,8.605023384E0,-5.578660369E-1,-2.537931204E0
3.122165610E-1,8.571503639E0,-5.578660369E-1,-2.557085514E0
3.142178940E-1,8.537983894E0,-5.482889414E-1,-2.552296877E0
3.162192600E-1,8.518829346E0,-5.147690773E-1,-2.559479713E0
3.182210260E-1,8.490098000E0,-5.339232683E-1,-2.566662550E0
3.202223590E-1,8.454184532E0,-5.004034638E-1,-2.583422422E0
3.222233920E-1,8.466156006E0,-5.051919818E-1,-2.571451187E0
3.242247250E-1,8.461367607E0,-5.123748183E-1,-2.581028223E0
3.262256250E-1,8.437424660E0,-5.435003638E-1,-2.581028223E0
3.282267250E-1,8.444606781E0,-5.842030644E-1,-2.595393896E0
3.302280580E-1,8.447001457E0,-5.961744189E-1,-2.592999697E0
3.322294910E-1,8.439818382E0,-6.033572555E-1,-2.602576733E0
3.362281900E-1,8.454184532E0,-5.913859010E-1,-2.612153769E0
3.382298230E-1,8.463761330E0,-5.937801600E-1,-2.643279314E0
3.402311890E-1,8.487704277E0,-6.201171875E-1,-2.657644987E0
3.422325220E-1,8.478127480E0,-6.225114465E-1,-2.676799297E0
3.442338550E-1,8.497281075E0,-6.344828010E-1,-2.722290516E0
3.462352210E-1,8.521224022E0,-6.273000240E-1,-2.751021862E0
3.482365540E-1,8.523618698E0,-6.201171875E-1,-2.813272953E0
3.502379200E-1,8.557138443E0,-6.488484740E-1,-2.842004299E0
3.522393860E-1,8.588263512E0,-6.584255695E-1,-2.868341208E0
3.542407190E-1,8.626572609E0,-6.751855016E-1,-2.909043789E0
3.562420520E-1,8.650514603E0,-6.703969240E-1,-2.940169573E0
3.582434180E-1,8.664880753E0,-6.536370516E-1,-2.947352171E0
3.602444180E-1,8.710371971E0,-6.823683381E-1,-2.995237827E0
3.622457510E-1,8.746285439E0,-6.847625971E-1,-3.023969173E0
3.642473170E-1,8.763046265E0,-6.871568561E-1,-3.035940409E0
3.662486500E-1,8.837267876E0,-7.134938836E-1,-3.081431627E0
3.682499830E-1,8.887548447E0,-7.278595567E-1,-3.071854591E0
3.702513490E-1,8.925856590E0,-7.302538157E-1,-3.105374336E0
3.722526820E-1,8.966559410E0,-7.398309112E-1,-3.105374336E0
3.742540150E-1,9.002472878E0,-7.470137477E-1,-3.112557173E0
3.762553480E-1,9.031204224E0,-7.685621977E-1,-3.117345810E0
3.782562480E-1,9.038387299E0,-7.853221297E-1,-3.124528646E0
3.802575810E-1,9.059935570E0,-7.853221297E-1,-3.158048391E0
3.822592470E-1,9.076695442E0,-7.877163887E-1,-3.193962574E0
3.842605800E-1,9.064723969E0,-7.829278708E-1,-3.227482557E0
3.862619460E-1,9.064723969E0,-7.877163887E-1,-3.241847992E0
3.882635460E-1,9.067118645E0,-7.637736797E-1,-3.265790939E0
3.902648790E-1,9.043175697E0,-7.781392932E-1,-3.282550812E0
3.922661450E-1,9.031204224E0,-7.781392932E-1,-3.282550812E0
3.942664780E-1,9.000079155E0,-7.877163887E-1,-3.306493521E0
3.962678110E-1,8.968953133E0,-7.398309112E-1,-3.325647593E0
3.982691770E-1,8.937828064E0,-7.278595567E-1,-3.354378939E0
4.002705100E-1,8.894730568E0,-7.206767201E-1,-3.363956213E0
4.022718430E-1,8.851634026E0,-7.158881426E-1,-3.375927448E0
4.042732090E-1,8.794171333E0,-6.584255695E-1,-3.402264595E0
4.062745420E-1,8.722343445E0,-6.249057055E-1,-3.397475958E0
4.082758750E-1,8.698400497E0,-6.057515144E-1,-3.407052994E0
4.102769750E-1,8.660092354E0,-5.794144869E-1,-3.430995703E0
4.122782080E-1,8.585869789E0,-5.506832004E-1,-3.454938650E0
4.142795410E-1,8.521224022E0,-4.932205975E-1,-3.469304085E0
4.162809070E-1,8.497281075E0,-4.740664065E-1,-3.454938650E0
4.182822400E-1,8.435029984E0,-4.357580245E-1,-3.478881359E0
4.202839060E-1,8.408693314E0,-4.237866402E-1,-3.478881359E0
4.222852720E-1,8.348835945E0,-3.998439014E-1,-3.493247032E0
4.242864050E-1,8.310527802E0,-3.639297783E-1,-3.488458395E0
4.262877380E-1,8.262641907E0,-3.160442710E-1,-3.514795303E0
4.282891040E-1,8.205180168E0,-2.921015322E-1,-3.531555414E0
4.302904370E-1,8.200390816E0,-2.633702159E-1,-3.560286522E0
4.322924700E-1,8.159688950E0,-2.154847383E-1,-3.600989342E0
4.342938360E-1,8.121379852E0,-1.915419847E-1,-3.646480560E0
4.362951690E-1,8.080677032E0,-1.723877788E-1,-3.660846233E0
4.382965020E-1,8.059128761E0,-1.436564922E-1,-3.718308687E0
4.402978680E-1,8.028003693E0,-1.292908341E-1,-3.754222870E0
4.422992010E-1,8.020820618E0,-1.245022863E-1,-3.794925690E0
4.443005340E-1,7.965752125E0,-1.005595401E-1,-3.816473961E0
4.463018670E-1,7.956175327E0,-9.337671846E-2,-3.828445435E0
4.483032000E-1,7.929838181E0,-7.661679387E-2,-3.869148016E0
4.503045330E-1,7.889135361E0,-5.506832153E-2,-3.931399345E0
4.523058660E-1,7.879558563E0,-2.394274808E-2,-3.933793545E0
4.543074990E-1,7.850827217E0,-5.027977005E-2,-3.960130453E0
4.563088650E-1,7.886741161E0,-4.788549617E-2,-4.000833035E0
4.583101980E-1,7.872375488E0,-4.549122229E-2,-3.996044636E0
4.603115310E-1,7.881952763E0,-4.788549617E-2,-4.034353256E0
4.623128970E-1,7.891529560E0,-4.788549617E-2,-4.058295727E0
4.643142300E-1,7.886741161E0,-4.788549617E-2,-4.046324253E0
4.663155630E-1,7.877163887E0,-7.182824612E-2,-4.091815472E0
4.683169290E-1,7.915472507E0,-6.225114316E-2,-4.106181145E0
4.703184950E-1,7.922655106E0,-7.661679387E-2,-4.134912491E0
4.723198280E-1,7.932232380E0,-9.337671846E-2,-4.161249638E0
4.743211940E-1,7.980117798E0,-1.005595401E-1,-4.192375183E0
4.763225270E-1,7.989695072E0,-1.245022863E-1,-4.199557781E0
4.783248930E-1,8.025609016E0,-1.508393139E-1,-4.199557781E0
4.803262590E-1,8.037580490E0,-1.604164094E-1,-4.225894928E0
4.823272920E-1,8.107014656E0,-1.843591630E-1,-4.247443676E0
4.843286250E-1,8.159688950E0,-1.963305324E-1,-4.268991947E0
4.863299910E-1,8.197997093E0,-2.178790122E-1,-4.288146019E0
4.883313240E-1,8.274613380E0,-2.418217510E-1,-4.333637238E0
4.903326570E-1,8.324893951E0,-2.849186957E-1,-4.376734257E0
4.923401230E-1,8.365595818E0,-2.873129845E-1,-4.424619675E0
4.943414560E-1,8.435029984E0,-3.040728867E-1,-4.429408550E0
4.963427890E-1,8.461367607E0,-3.160442710E-1,-4.455745220E0
4.983441550E-1,8.552350044E0,-3.136500120E-1,-4.474899769E0
5.003454880E-1,8.593051910E0,-3.375927508E-1,-4.501236439E0
5.023468210E-1,8.640937805E0,-3.280156553E-1,-4.510813713E0
5.043488870E-1,8.712765694E0,-3.447755575E-1,-4.534756660E0
5.063502200E-1,8.810931206E0,-3.495641351E-1,-4.563488007E0
5.083515530E-1,8.851634026E0,-3.591412306E-1,-4.585036278E0
5.103529190E-1,8.918673515E0,-4.046324492E-1,-4.604190350E0
5.123542520E-1,8.983319283E0,-4.166038036E-1,-4.620950222E0
5.143555850E-1,9.019232750E0,-4.094209969E-1,-4.625739098E0
5.163569180E-1,9.107821465E0,-4.309694767E-1,-4.654470444E0
5.183582510E-1,9.177255630E0,-4.525179267E-1,-4.656864643E0
5.203595840E-1,9.217958450E0,-4.597007632E-1,-4.673624516E0
5.223609170E-1,9.296969414E0,-4.597007632E-1,-4.692778587E0
5.243622500E-1,9.316123009E0,-4.573064744E-1,-4.704750061E0
5.263636160E-1,9.349642754E0,-4.620950520E-1,-4.704750061E0
5.283649490E-1,9.397528648E0,-4.692778587E-1,-4.719115734E0
5.303662820E-1,9.409500122E0,-4.597007632E-1,-4.707144260E0
5.323676480E-1,9.433443069E0,-4.573064744E-1,-4.714327335E0
5.343689810E-1,9.445414543E0,-4.980091453E-1,-4.743058205E0
5.363703140E-1,9.454991341E0,-4.956148863E-1,-4.738269806E0
5.383706470E-1,9.502876282E0,-5.171633363E-1,-4.731087208E0
5.403719800E-1,9.522030830E0,-5.315290093E-1,-4.745452881E0
5.423736130E-1,9.505270958E0,-5.219519138E-1,-4.745452881E0
5.443749790E-1,9.514847755E0,-5.482889414E-1,-4.735875607E0
5.463763120E-1,9.495694160E0,-5.458946824E-1,-4.728692532E0
5.483777780E-1,9.488511086E0,-5.458946824E-1,-4.738269806E0
5.503791440E-1,9.490905762E0,-5.315290093E-1,-4.738269806E0
5.543746770E-1,9.471751213E0,-5.099805593E-1,-4.767001152E0
5.563760430E-1,9.464568138E0,-5.004034638E-1,-4.778972626E0
5.583772090E-1,9.457385063E0,-4.980091453E-1,-4.771789551E0
5.603785420E-1,9.426259995E0,-4.884320498E-1,-4.800520897E0
5.623799080E-1,9.409500122E0,-4.740664065E-1,-4.802915096E0
5.643805410E-1,9.390345573E0,-4.908263385E-1,-4.800520897E0
5.663815740E-1,9.356825829E0,-4.980091453E-1,-4.826858044E0
5.683832070E-1,9.340065956E0,-4.884320498E-1,-4.826858044E0
5.703845400E-1,9.335277557E0,-4.932205975E-1,-4.819674969E0
5.723858730E-1,9.299363136E0,-4.716721475E-1,-4.836435318E0
5.743872390E-1,9.292180061E0,-4.692778587E-1,-4.829252243E0
5.763885720E-1,9.261054993E0,-4.237866402E-1,-4.836435318E0
5.783895720E-1,9.222746849E0,-4.118152559E-1,-4.824463844E0
5.803909380E-1,9.196409225E0,-4.094209969E-1,-4.807703972E0
5.823922710E-1,9.170072556E0,-3.854782581E-1,-4.798126698E0
5.843936040E-1,9.143735886E0,-3.759011328E-1,-4.814886570E0
5.863949370E-1,9.136552811E0,-3.663240373E-1,-4.824463844E0
5.883974030E-1,9.103033066E0,-3.471698463E-1,-4.824463844E0
5.903987360E-1,9.074301720E0,-3.351984620E-1,-4.822069645E0
5.924000690E-1,9.064723969E0,-3.256213665E-1,-4.834040642E0
5.944014020E-1,9.035993576E0,-2.753416002E-1,-4.860377789E0
5.964027680E-1,9.024022102E0,-2.537931204E-1,-4.843617916E0
5.984041010E-1,9.009655952E0,-2.298503816E-1,-4.862771988E0
6.004054340E-1,8.956981659E0,-1.939362586E-1,-4.843617916E0
6.024068000E-1,8.937828064E0,-1.987248063E-1,-4.853195190E0
6.044081330E-1,8.921068192E0,-1.675992310E-1,-4.857983589E0
6.064094660E-1,8.904308319E0,-1.628106833E-1,-4.889109135E0
6.084106990E-1,8.897125244E0,-1.556278616E-1,-4.896292210E0
6.104120320E-1,8.877970695E0,-1.508393139E-1,-4.879531860E0
6.124136650E-1,8.861210823E0,-1.484450400E-1,-4.893897533E0
6.144150650E-1,8.870788574E0,-1.412622184E-1,-4.886714935E0
6.164163980E-1,8.846845627E0,-1.221080124E-1,-4.917840481E0
6.184178980E-1,8.844450951E0,-1.149251908E-1,-4.941783428E0
6.204189310E-1,8.827691078E0,-1.077423692E-1,-4.953754425E0
6.224202640E-1,8.801354408E0,-8.619388938E-2,-4.980091572E0
6.244215970E-1,8.794171333E0,-7.901106775E-2,-4.987274647E0
6.264232630E-1,8.808537483E0,-6.464541703E-2,-5.006428719E0
6.284243290E-1,8.825297356E0,-6.943397224E-2,-5.039948463E0
6.304256620E-1,8.830085754E0,-6.703969836E-2,-5.075862408E0
6.324270280E-1,8.851634026E0,-6.464541703E-2,-5.126142502E0
6.344290610E-1,8.865999222E0,-7.182824612E-2,-5.152479172E0
6.364300940E-1,8.897125244E0,-7.661679387E-2,-5.178816319E0
6.384322270E-1,8.880365372E0,-8.619388938E-2,-5.221913338E0
6.404335600E-1,8.894730568E0,-8.140534163E-2,-5.262616158E0
6.424409260E-1,8.906702042E0,-8.140534163E-2,-5.288952827E0
6.444422920E-1,8.921068192E0,-7.422251999E-2,-5.336838722E0
6.464436250E-1,8.916279793E0,-8.858817071E-2,-5.353598595E0
6.484438250E-1,8.949799538E0,-5.985686928E-2,-5.384724140E0
6.504451910E-1,8.990502357E0,-8.858817071E-2,-5.413455486E0
6.524465240E-1,8.983319283E0,-8.858817071E-2,-5.437397957E0
6.544478570E-1,9.016839027E0,-9.577099234E-2,-5.461340904E0
6.564491900E-1,9.035993576E0,-1.125309169E-1,-5.485283375E0
6.584505230E-1,9.067118645E0,-1.101366431E-1,-5.502043724E0
6.604528890E-1,9.115004539E0,-1.197137386E-1,-5.540351868E0
6.624538890E-1,9.160495758E0,-1.245022863E-1,-5.573871613E0
6.644551550E-1,9.174860954E0,-1.173194647E-1,-5.566689014E0
6.664564550E-1,9.203592300E0,-1.316851079E-1,-5.602602959E0
6.684577210E-1,9.220352173E0,-1.316851079E-1,-5.616968632E0
6.704644870E-1,9.237112045E0,-1.340793967E-1,-5.645699978E0
6.724662200E-1,9.249083519E0,-1.699935049E-1,-5.667248249E0
6.744675530E-1,9.249083519E0,-1.867534369E-1,-5.662459850E0
6.764688860E-1,9.301757812E0,-2.226675600E-1,-5.684008598E0
6.784702520E-1,9.328094482E0,-2.226675600E-1,-5.707951069E0
6.804719180E-1,9.342460632E0,-2.490045726E-1,-5.710345268E0
6.824729510E-1,9.361614227E0,-2.968900800E-1,-5.755836487E0
6.844746840E-1,9.361614227E0,-3.208328187E-1,-5.791750908E0
6.864760170E-1,9.347249031E0,-3.304099143E-1,-5.813299179E0
6.884773500E-1,9.361614227E0,-3.759011328E-1,-5.858790398E0
6.904787160E-1,9.368797302E0,-3.830839694E-1,-5.849213123E0
6.924800490E-1,9.344854355E0,-3.950553536E-1,-5.863578796E0
6.944806820E-1,9.330489159E0,-4.357580245E-1,-5.865973473E0
6.964823480E-1,9.337671280E0,-4.549122155E-1,-5.868367672E0
6.984832480E-1,9.313729286E0,-4.884320498E-1,-5.882733345E0
7.004845810E-1,9.296969414E0,-5.195576549E-1,-5.921041489E0
7.044812470E-1,9.251478195E0,-5.650488734E-1,-5.892310143E0
7.064825800E-1,9.249083519E0,-6.105400920E-1,-5.904281616E0
7.084839460E-1,9.244295120E0,-6.009629965E-1,-5.911464691E0
7.104852790E-1,9.227535248E0,-5.865973234E-1,-5.925830364E0
7.124866120E-1,9.191620827E0,-6.105400920E-1,-5.959350109E0
7.144879780E-1,9.158101082E0,-6.129343510E-1,-5.985687256E0
7.164893110E-1,9.119792938E0,-6.153286099E-1,-5.995264053E0
7.184906440E-1,9.126976013E0,-6.177229285E-1,-6.014418125E0
7.204909770E-1,9.071907043E0,-6.057515144E-1,-6.047938347E0
7.224926430E-1,9.059935570E0,-5.842030644E-1,-6.088640690E0
7.244940430E-1,9.043175697E0,-5.722316504E-1,-6.088640690E0
7.264954430E-1,9.026415825E0,-5.482889414E-1,-6.098217964E0
7.284968430E-1,8.985713005E0,-5.363175869E-1,-6.122160912E0
7.324937090E-1,8.978530884E0,-4.860377908E-1,-6.155680656E0
7.344950420E-1,8.959376335E0,-4.453351200E-1,-6.153286457E0
7.364963750E-1,8.956981659E0,-4.189980924E-1,-6.136526108E0
7.384977080E-1,8.959376335E0,-3.902668059E-1,-6.119766235E0
7.404990410E-1,8.959376335E0,-3.759011328E-1,-6.126949310E0
7.425007070E-1,8.983319283E0,-3.399870098E-1,-6.100612164E0
7.445016730E-1,8.961771011E0,-3.328042030E-1,-6.119766235E0
7.465030060E-1,8.976136208E0,-3.208328187E-1,-6.098217964E0
7.485043720E-1,9.021627426E0,-2.633702159E-1,-6.069486618E0
7.505057050E-1,9.052753448E0,-2.561874092E-1,-6.069486618E0
7.525070380E-1,9.074301720E0,-2.346389294E-1,-6.050332546E0
7.545084040E-1,9.100638390E0,-2.130904645E-1,-6.019207001E0
7.565097370E-1,9.131764412E0,-2.106961906E-1,-5.997658253E0
7.585113700E-1,9.141341209E0,-1.987248063E-1,-6.021601200E0
7.605127360E-1,9.153312683E0,-1.556278616E-1,-6.009629726E0
7.625140690E-1,9.174860954E0,-1.364736706E-1,-5.995264053E0
7.645154020E-1,9.189227104E0,-1.292908341E-1,-5.985687256E0
7.665167680E-1,9.213169098E0,-1.149251908E-1,-5.990475655E0
7.685181010E-1,9.215563774E0,-1.149251908E-1,-6.000052452E0
7.705194340E-1,9.241900444E0,-9.098244458E-2,-6.016812801E0
7.725208000E-1,9.273026466E0,-7.661679387E-2,-6.016812801E0
7.745221330E-1,9.299363136E0,-9.577099234E-2,-6.028783798E0
7.765234660E-1,9.308940887E0,-9.098244458E-2,-6.023995399E0
7.785248320E-1,9.320911407E0,-1.029538140E-1,-6.040755272E0
7.805261650E-1,9.332882881E0,-8.140534163E-2,-6.023995399E0
7.825271980E-1,9.359220505E0,-7.422251999E-2,-6.021601200E0
7.845285640E-1,9.385557175E0,-5.267404765E-2,-6.057515144E0
7.865298970E-1,9.409500122E0,-4.309694469E-2,-6.055120945E0
7.885310300E-1,9.409500122E0,-3.112557158E-2,-6.064698219E0
7.905323960E-1,9.419076920E0,-2.633702382E-2,-6.062304020E0
7.925337290E-1,9.438231468E0,-1.675992459E-2,-6.059909344E0
7.945350620E-1,9.478934288E0,-7.182824425E-3,-6.059909344E0
7.965360950E-1,9.486116409E0,-2.394274808E-2,-6.035966873E0
7.985371610E-1,9.526819229E0,-1.197137404E-2,-6.031178474E0
8.005384940E-1,9.543579102E0,2.394274808E-3,-6.014418125E0
8.025398270E-1,9.572310448E0,0.000000000E0,-5.995264053E0
8.045411600E-1,9.641744614E0,9.577099234E-3,-5.976109982E0
8.065424930E-1,9.675264359E0,-2.394274808E-3,-5.961744308E0
8.085438260E-1,9.680052757E0,-3.112557158E-2,-5.961744308E0
8.105451590E-1,9.730332375E0,-1.915419847E-2,-5.949772835E0
8.125465250E-1,9.778218269E0,-1.197137404E-2,-5.933012962E0
8.145479910E-1,9.778218269E0,-9.577099234E-3,-5.904281616E0
8.165493240E-1,9.838075638E0,-5.746259540E-2,-5.899493217E0
8.185503900E-1,9.854835510E0,-5.746259540E-2,-5.899493217E0
8.205517230E-1,9.885960579E0,-8.858817071E-2,-5.887521744E0
8.225530560E-1,9.926663399E0,-1.125309169E-1,-5.913858891E0
8.245544220E-1,9.945817947E0,-1.436564922E-1,-5.904281616E0
8.265557550E-1,9.964971542E0,-1.699935049E-1,-5.909070015E0
8.285570880E-1,9.984126091E0,-2.106961906E-1,-5.923435688E0
8.305584540E-1,9.991309166E0,-2.154847383E-1,-5.925830364E0
8.325597870E-1,9.991309166E0,-2.561874092E-1,-5.916253090E0
8.345611200E-1,1.000567436E1,-2.681587934E-1,-5.906675816E0
8.365631860E-1,1.001764584E1,-2.897072434E-1,-5.899493217E0
8.385676190E-1,1.000088596E1,-3.160442710E-1,-5.904281616E0
8.405689520E-1,9.993702888E0,-3.328042030E-1,-5.894704342E0
8.425706180E-1,9.962577820E0,-3.591412306E-1,-5.904281616E0
8.445719510E-1,9.936240196E0,-4.022381604E-1,-5.885127544E0
8.465732840E-1,9.931451797E0,-4.142095447E-1,-5.882733345E0
8.485748500E-1,9.917086601E0,-4.333637357E-1,-5.885127544E0
8.505761830E-1,9.878777504E0,-4.525179267E-1,-5.875550270E0
8.525775160E-1,9.866806030E0,-4.573064744E-1,-5.875550270E0
8.545785820E-1,9.826104164E0,-4.740664065E-1,-5.880339146E0
8.565802480E-1,9.811738014E0,-4.573064744E-1,-5.877944469E0
8.585818480E-1,9.794978142E0,-4.860377908E-1,-5.880339146E0
8.605832140E-1,9.763853073E0,-4.716721475E-1,-5.863578796E0
8.625843470E-1,9.751881599E0,-4.764606953E-1,-5.851607800E0
8.645856800E-1,9.718361855E0,-4.812492430E-1,-5.861184597E0
8.665870460E-1,9.675264359E0,-4.668835998E-1,-5.868367672E0
8.685883790E-1,9.668081284E0,-4.644893110E-1,-5.875550270E0
8.705897120E-1,9.639349937E0,-4.668835998E-1,-5.849213123E0
8.725910450E-1,9.634561539E0,-4.740664065E-1,-5.827664852E0
8.745922450E-1,9.632167816E0,-4.812492430E-1,-5.813299179E0
8.765935780E-1,9.598648071E0,-4.860377908E-1,-5.822876453E0
8.785949110E-1,9.598648071E0,-5.004034638E-1,-5.794145107E0
8.805984440E-1,9.589070320E0,-4.860377908E-1,-5.801327705E0
8.825997100E-1,9.586676598E0,-4.908263385E-1,-5.753442287E0
8.846010430E-1,9.589070320E0,-4.692778587E-1,-5.717528343E0
8.866025090E-1,9.574705124E0,-4.836435020E-1,-5.710345268E0
8.886038750E-1,9.577098846E0,-4.836435020E-1,-5.686402798E0
8.906052080E-1,9.584281921E0,-4.908263385E-1,-5.688796997E0
8.926064410E-1,9.596253395E0,-5.195576549E-1,-5.660065651E0
8.946078070E-1,9.605830193E0,-5.411061049E-1,-5.657671452E0
8.966084400E-1,9.598648071E0,-5.506832004E-1,-5.664854050E0
9.006080390E-1,9.622590065E0,-5.698373914E-1,-5.636122704E0
9.026093720E-1,9.632167816E0,-5.770202279E-1,-5.612180233E0
9.046107050E-1,9.668081284E0,-5.865973234E-1,-5.602602959E0
9.066120710E-1,9.675264359E0,-6.201171875E-1,-5.581054688E0
9.086134040E-1,9.665687561E0,-6.249057055E-1,-5.581054688E0
9.106147370E-1,9.656110764E0,-6.464542150E-1,-5.545140266E0
9.126161030E-1,9.651321411E0,-6.416656375E-1,-5.549929142E0
9.146177360E-1,9.663292885E0,-6.512427330E-1,-5.516408920E0
9.166190690E-1,9.689630508E0,-6.632141471E-1,-5.497254848E0
9.186204350E-1,9.687235832E0,-6.536370516E-1,-5.482889175E0
9.206217680E-1,9.689630508E0,-6.392713785E-1,-5.473312378E0
9.226233010E-1,9.682447433E0,-6.440598965E-1,-5.439792156E0
9.246246670E-1,9.687235832E0,-6.440598965E-1,-5.425426483E0
9.266260000E-1,9.684841156E0,-6.201171875E-1,-5.377541065E0
9.286273330E-1,9.703995705E0,-5.865973234E-1,-5.315289974E0
9.306286990E-1,9.718361855E0,-5.889915824E-1,-5.291347504E0
9.326300320E-1,9.737515450E0,-5.387118459E-1,-5.265010357E0
9.346313650E-1,9.737515450E0,-5.123748183E-1,-5.236279011E0
9.366327310E-1,9.747093201E0,-4.980091453E-1,-5.205153465E0
9.386340640E-1,9.759063721E0,-4.644893110E-1,-5.164450645E0
9.426353300E-1,9.792584419E0,-3.974496126E-1,-5.080651283E0
9.446366630E-1,9.847652435E0,-3.423812985E-1,-5.049525738E0
9.466378630E-1,9.840469360E0,-3.040728867E-1,-5.030371189E0
9.486391960E-1,9.871595383E0,-2.609759569E-1,-4.963331699E0
9.506405290E-1,9.907508850E0,-2.226675600E-1,-4.932206154E0
9.526419950E-1,9.919480324E0,-2.035133541E-1,-4.901080608E0
9.546433280E-1,9.953000069E0,-1.364736706E-1,-4.843617916E0
9.566446610E-1,9.984126091E0,-6.225114316E-2,-4.781366825E0
9.586460270E-1,9.974549294E0,-2.633702382E-2,-4.781366825E0
9.606473600E-1,1.000088596E1,3.351984918E-2,-4.728692532E0
9.626486930E-1,1.001046276E1,4.549122229E-2,-4.711932659E0
9.646503260E-1,1.003440571E1,1.005595401E-1,-4.673624516E0
9.666516590E-1,1.004637718E1,1.508393139E-1,-4.640104771E0
9.686529920E-1,1.006553173E1,1.747820675E-1,-4.647287369E0
9.706543580E-1,1.009186840E1,2.394274771E-1,-4.601796150E0
9.726556910E-1,1.012299347E1,2.729473412E-1,-4.558699131E0
9.746570240E-1,1.012059975E1,3.351984620E-1,-4.553910732E0
9.766583900E-1,1.011341667E1,3.806896806E-1,-4.515602112E0
9.786597230E-1,1.011820507E1,4.573064744E-1,-4.477293968E0
9.806610560E-1,1.012059975E1,4.980091453E-1,-4.448562622E0
9.826624220E-1,1.006792545E1,5.482889414E-1,-4.388705730E0
9.846637550E-1,1.005595398E1,6.225114465E-1,-4.357580185E0
9.866650880E-1,1.002722263E1,6.296942830E-1,-4.276175022E0
9.886664540E-1,9.950606346E0,6.919454336E-1,-4.197163582E0
9.906677870E-1,9.907508850E0,7.374366522E-1,-4.161249638E0
9.926691200E-1,9.878777504E0,7.972934842E-1,-4.084632874E0
9.946704860E-1,9.818921089E0,8.427847624E-1,-4.027170181E0
9.966718190E-1,9.806949615E0,8.739103079E-1,-3.984073162E0
9.986731520E-1,9.754275322E0,9.170072675E-1,-3.936187744E0
1.000674518E0,9.711178780E0,9.601042271E-1,-3.936187744E0
1.002675151E0,9.701601982E0,9.744698405E-1,-3.919427872E0
1.004676784E0,9.656110764E0,9.936240315E-1,-3.905062199E0
1.006678150E0,9.610619545E0,1.022355318E0,-3.907456398E0
1.008679483E0,9.577098846E0,1.017566800E0,-3.902667999E0
1.010680816E0,9.526819229E0,1.060663700E0,-3.914639235E0
1.012682149E0,9.498087883E0,1.089395046E0,-3.924216509E0
1.014683482E0,9.433443069E0,1.166011810E0,-3.929004908E0
1.016684815E0,9.373585701E0,1.194743156E0,-3.938581944E0
1.018686148E0,9.332882881E0,1.209108829E0,-3.948159218E0
1.020687481E0,9.306546211E0,1.247417212E0,-3.948159218E0
1.022688847E0,9.256266594E0,1.261782765E0,-3.952947617E0
1.024689913E0,9.220352173E0,1.285725594E0,-3.952947617E0
1.026691246E0,9.191620827E0,1.292908430E0,-3.945764780E0
1.028692612E0,9.184437752E0,1.340793848E0,-3.931399345E0
1.030693945E0,9.191620827E0,1.352765322E0,-3.914639235E0
1.032695278E0,9.196409225E0,1.388679385E0,-3.885908127E0
1.034696644E0,9.227535248E0,1.398256540E0,-3.902667999E0
1.036697977E0,9.270631790E0,1.412622094E0,-3.883513689E0
1.038700377E0,9.311334610E0,1.438959122E0,-3.876330853E0
1.040701743E0,9.366402626E0,1.455719113E0,-3.876330853E0
1.042703076E0,9.502876282E0,1.486844659E0,-3.826051235E0
1.044704409E0,9.660899162E0,1.482056141E0,-3.811685562E0
1.046705775E0,9.737515450E0,1.510787368E0,-3.792531252E0
1.048707108E0,9.931451797E0,1.505998850E0,-3.730280161E0
1.050708441E0,1.017327404E1,1.465296149E0,-3.660846233E0
1.052709807E0,1.028819847E1,1.443747759E0,-3.617749214E0
1.054711140E0,1.053720379E1,1.400650740E0,-3.562680960E0
1.056712473E0,1.067128277E1,1.369525194E0,-3.531555414E0
1.058713539E0,1.093944168E1,1.347976685E0,-3.486064196E0
1.060714872E0,1.121238899E1,1.321639657E0,-3.402264595E0
1.062716205E0,1.135125732E1,1.292908430E0,-3.375927448E0
1.064716938E0,1.158829021E1,1.276148438E0,-3.306493521E0
1.066718271E0,1.189236259E1,1.228263021E0,-3.256213665E0
1.068719604E0,1.203362560E1,1.197137356E0,-3.220299721E0
1.070720704E0,1.230178356E1,1.142069101E0,-3.155654192E0
1.072722037E0,1.260106850E1,1.077423692E0,-3.071854591E0
1.074723370E0,1.288359261E1,1.058269501E0,-3.009603500E0
1.076724436E0,1.302246094E1,1.039115310E0,-2.961717844E0
1.078725769E0,1.339836216E1,9.505270720E-1,-2.873129845E0
1.080727102E0,1.347976685E1,9.289786220E-1,-2.822849989E0
1.082734835E0,1.368806934E1,8.954587579E-1,-2.719896078E0
1.084736168E0,1.381735992E1,8.739103079E-1,-2.664827824E0
1.086737501E0,1.411664391E1,7.326480746E-1,-2.561874151E0
1.088738834E0,1.436085987E1,5.794144869E-1,-2.458920240E0
1.090740167E0,1.445663166E1,5.195576549E-1,-2.399063349E0
1.092741533E0,1.459310532E1,4.118152559E-1,-2.303292274E0
1.094742866E0,1.477746391E1,2.873129845E-1,-2.205127001E0
1.096744199E0,1.507674885E1,1.101366431E-1,-2.178790092E0
1.098744499E0,1.520364475E1,3.351984918E-2,-2.116539001E0
1.100745832E0,1.537603283E1,-1.460507661E-1,-2.042316437E0
1.102747165E0,1.546701527E1,-2.298503816E-1,-1.975276709E0
1.104748531E0,1.556996918E1,-3.304099143E-1,-1.869928598E0
1.106749864E0,1.562264347E1,-4.333637357E-1,-1.810071707E0
1.108751197E0,1.572080803E1,-4.788549542E-1,-1.630501151E0
1.110752563E0,1.576151085E1,-5.746259689E-1,-1.422199249E0
1.112753896E0,1.577348232E1,-6.129343510E-1,-1.307274103E0
1.114755229E0,1.580221367E1,-7.087053657E-1,-1.139674783E0
1.116756595E0,1.577108860E1,-8.188419938E-1,-9.361614585E-1
1.118758561E0,1.575911713E1,-8.475732803E-1,-8.427847624E-1
1.120759894E0,1.566095161E1,-9.122186899E-1,-6.488484740E-1
1.122761260E0,1.552926636E1,-9.241901040E-1,-4.142095447E-1
1.124762926E0,1.544067860E1,-9.217957854E-1,-3.184385598E-1
1.126764259E0,1.522279930E1,-9.050358534E-1,-1.173194647E-1
1.128765625E0,1.497140026E1,-8.786988258E-1,-5.267404765E-2
1.130767225E0,1.482295513E1,-8.523618579E-1,9.816526622E-2
1.132768558E0,1.456676769E1,-7.829278708E-1,2.035133541E-1
1.134769591E0,1.424593544E1,-7.182824612E-1,2.849186957E-1
1.136771924E0,1.413101006E1,-6.656084061E-1,3.184385598E-1
1.138773257E0,1.384369659E1,-5.842030644E-1,3.447755575E-1
1.140774323E0,1.372158909E1,-5.435003638E-1,3.423812985E-1
1.144770289E0,1.326907063E1,-3.567469418E-1,2.944957912E-1
1.146771655E0,1.316611671E1,-3.016786277E-1,2.681587934E-1
1.148772655E0,1.297696972E1,-2.059076279E-1,2.154847383E-1
1.150774721E0,1.282612991E1,-1.580221355E-1,1.580221355E-1
1.152776054E0,1.276866722E1,-1.388679445E-1,1.340793967E-1
1.154777387E0,1.265374279E1,-9.577099234E-2,9.098244458E-2
1.156778720E0,1.259149075E1,-8.379961550E-2,5.985686928E-2
1.158779820E0,1.251726913E1,-7.661679387E-2,-1.197137404E-2
1.160781153E0,1.246459484E1,-2.394274808E-2,-6.703969836E-2
1.162782519E0,1.242868042E1,-2.394274808E-2,-1.340793967E-1
1.164783519E0,1.235924625E1,-2.154847234E-2,-1.963305324E-1
1.166784852E0,1.231614971E1,-6.225114316E-2,-2.346389294E-1
1.168786218E0,1.229460144E1,-7.422251999E-2,-2.729473412E-1
1.170787551E0,1.223474407E1,-1.053480953E-1,-3.423812985E-1
1.172788884E0,1.217009926E1,-1.245022863E-1,-3.304099143E-1
1.174790250E0,1.215333939E1,-1.532335877E-1,-3.351984620E-1
1.176791583E0,1.209108734E1,-2.178790122E-1,-3.208328187E-1
1.178792583E0,1.199531651E1,-2.729473412E-1,-3.160442710E-1
1.180793949E0,1.195461369E1,-3.016786277E-1,-2.873129845E-1
1.182795282E0,1.188996887E1,-3.687183261E-1,-2.825244367E-1
1.184796615E0,1.186363125E1,-4.237866402E-1,-2.705530524E-1
1.186797981E0,1.174870682E1,-5.075862408E-1,-2.298503816E-1
1.188799314E0,1.162180996E1,-6.153286099E-1,-1.556278616E-1
1.190800647E0,1.157631874E1,-6.991282701E-1,-1.364736706E-1
1.192802013E0,1.148533630E1,-8.188419938E-1,-5.267404765E-2
1.194803679E0,1.135365105E1,-9.313728809E-1,1.915419847E-2
1.196804312E0,1.129858303E1,-9.840469360E-1,6.943397224E-2
1.198805678E0,1.118365765E1,-1.084606528E0,1.771763414E-1
1.200807311E0,1.106633854E1,-1.175588965E0,2.944957912E-1
1.202808644E0,1.101126957E1,-1.218685865E0,3.543526828E-1
1.204811510E0,1.087000751E1,-1.300091267E0,4.860377908E-1
1.206813343E0,1.079817963E1,-1.333611012E0,5.482889414E-1
1.208815009E0,1.068085957E1,-1.424593568E0,6.967339516E-1
1.210815642E0,1.053241444E1,-1.472478986E0,8.356019258E-1
1.212816975E0,1.039354706E1,-1.503604531E0,9.768640995E-1
1.214818308E0,1.033129597E1,-1.513181686E0,1.041509509E0
1.216819674E0,1.017566776E1,-1.534730196E0,1.170800328E0
1.218821240E0,1.007510853E1,-1.549095750E0,1.216291547E0
1.220822573E0,9.919480324E0,-1.551490068E0,1.340793848E0
1.222823906E0,9.771035194E0,-1.539518714E0,1.426987767E0
1.224825572E0,9.680052757E0,-1.517970204E0,1.467690468E0
1.226826905E0,9.536396980E0,-1.513181686E0,1.517970204E0
1.228828238E0,9.452596664E0,-1.465296149E0,1.544307232E0
1.230829571E0,9.323306084E0,-1.436564922E0,1.570644259E0
1.232830937E0,9.165284157E0,-1.345582485E0,1.592192769E0
1.234832270E0,9.095849991E0,-1.343188167E0,1.594586968E0
1.236833603E0,8.954587936E0,-1.256994247E0,1.585009933E0
1.238834969E0,8.822902679E0,-1.192348838E0,1.565855742E0
1.240836302E0,8.755863190E0,-1.161223292E0,1.561067224E0
1.242837635E0,8.640937805E0,-1.094183564E0,1.534730196E0
1.244839001E0,8.516435623E0,-1.017566800E0,1.513181686E0
1.246840334E0,8.451789856E0,-9.696813226E-1,1.505998850E0
1.248841667E0,8.324893951E0,-8.882759809E-1,1.477267504E0
1.250843033E0,8.221940041E0,-8.188419938E-1,1.446141958E0
1.252844366E0,8.140534401E0,-7.685621977E-1,1.434170604E0
1.254845766E0,8.039975166E0,-6.967339516E-1,1.446141958E0
1.256847132E0,7.994483471E0,-6.727912426E-1,1.436564922E0
1.258848465E0,7.891529560E0,-6.177229285E-1,1.400650740E0
1.260849798E0,7.812518597E0,-5.746259689E-1,1.398256540E0
1.262850831E0,7.769421577E0,-5.506832004E-1,1.379102230E0
1.264850964E0,7.695199013E0,-4.956148863E-1,1.362342358E0
1.266851797E0,7.616188049E0,-4.668835998E-1,1.369525194E0
1.268853163E0,7.585062504E0,-4.477293789E-1,1.381496549E0
1.270854496E0,7.534782887E0,-4.309694767E-1,1.412622094E0
1.272855829E0,7.467742920E0,-3.830839694E-1,1.443747759E0
1.274857195E0,7.453377247E0,-3.878725171E-1,1.458113313E0
1.276858528E0,7.400703430E0,-3.639297783E-1,1.515576005E0
1.278859861E0,7.391126156E0,-3.519583941E-1,1.532335877E0
1.280861227E0,7.376760483E0,-3.543526828E-1,1.592192769E0
1.282862560E0,7.352818012E0,-3.423812985E-1,1.640078187E0
1.284863893E0,7.326480865E0,-3.471698463E-1,1.661626697E0
1.286865259E0,7.292961121E0,-3.663240373E-1,1.699935079E0
1.288866592E0,7.261835575E0,-3.735068738E-1,1.731060743E0
1.290867925E0,7.257047176E0,-3.711125851E-1,1.752609134E0
1.292869258E0,7.242681503E0,-3.639297783E-1,1.757397652E0
1.294870591E0,7.221132755E0,-4.118152559E-1,1.762186289E0
1.296871924E0,7.209161282E0,-4.213923812E-1,1.757397652E0
1.298873257E0,7.223526955E0,-4.453351200E-1,1.759791970E0
1.300874590E0,7.197190285E0,-4.644893110E-1,1.764580488E0
1.302875956E0,7.182824612E0,-4.692778587E-1,1.762186289E0
1.304876956E0,7.163670063E0,-4.980091453E-1,1.731060743E0
1.306878289E0,7.146910191E0,-5.027977228E-1,1.719089270E0
1.308879655E0,7.118178844E0,-5.411061049E-1,1.714300752E0
1.310880988E0,7.084659100E0,-5.674431324E-1,1.704723716E0
1.312882321E0,7.070293427E0,-5.794144869E-1,1.699935079E0
1.314883621E0,7.036773682E0,-5.913859010E-1,1.714300752E0
1.316884654E0,7.010436535E0,-5.961744189E-1,1.714300752E0
1.318885954E0,6.993676662E0,-6.129343510E-1,1.711906433E0
1.320887320E0,6.955368519E0,-6.153286099E-1,1.723877907E0
1.322888986E0,6.888328552E0,-6.105400920E-1,1.750214934E0
1.324890319E0,6.871568680E0,-6.153286099E-1,1.755003452E0
1.326891685E0,6.826077461E0,-6.416656375E-1,1.783734679E0
1.328893018E0,6.802134514E0,-6.464542150E-1,1.800494671E0
1.330895051E0,6.780586243E0,-6.584255695E-1,1.838803053E0
1.332896417E0,6.754249096E0,-6.871568561E-1,1.826831698E0
1.334897750E0,6.715940952E0,-6.919454336E-1,1.867534399E0
1.336899083E0,6.651295185E0,-7.110996246E-1,1.891477108E0
1.338900449E0,6.577073097E0,-7.158881426E-1,1.917814136E0
1.340901782E0,6.557918549E0,-7.398309112E-1,1.924996972E0
1.342903115E0,6.502850533E0,-7.733507752E-1,1.953728199E0
1.344904481E0,6.435810566E0,-7.661679387E-1,1.980065227E0
1.346905814E0,6.414262295E0,-7.829278708E-1,1.999219418E0
1.348907147E0,6.352011204E0,-7.877163887E-1,2.039922237E0
1.350909213E0,6.292154312E0,-8.068706393E-1,2.071047783E0
1.352910546E0,6.268211365E0,-7.972934842E-1,2.147664547E0
1.354911879E0,6.210748672E0,-8.068706393E-1,2.221887112E0
1.356913245E0,6.193988800E0,-8.164477348E-1,2.267378330E0
1.358914578E0,6.148497581E0,-8.451790214E-1,2.334417820E0
1.360919944E0,6.093429565E0,-8.379961848E-1,2.439765930E0
1.362921277E0,6.091034889E0,-8.260248303E-1,2.490045786E0
1.364922943E0,6.052726746E0,-8.451790214E-1,2.569056988E0
1.366925543E0,6.009629726E0,-8.547561169E-1,2.669616461E0
1.368926876E0,6.009629726E0,-8.499675393E-1,2.727078915E0
1.370928209E0,5.968926907E0,-8.427847624E-1,2.830032825E0
1.372929575E0,5.966532707E0,-8.571503758E-1,2.897072554E0
1.374930908E0,5.968926907E0,-8.739103079E-1,2.959323645E0
1.376932541E0,5.964138508E0,-8.667274714E-1,2.997632027E0
1.378933941E0,5.966532707E0,-8.763045669E-1,3.014391899E0
1.380935274E0,5.976109982E0,-8.834874034E-1,3.074248791E0
1.382936607E0,6.012023926E0,-9.050358534E-1,3.071854591E0
1.384937973E0,6.028783798E0,-9.074301720E-1,3.067065954E0
1.386939306E0,6.069486618E0,-9.433442950E-1,3.086220264E0
1.388940639E0,6.093429565E0,-9.529213905E-1,3.098191500E0
1.390941305E0,6.117372036E0,-9.624984860E-1,3.105374336E0
1.392942638E0,6.170046329E0,-9.840469360E-1,3.119740009E0
1.394943971E0,6.208354473E0,-9.984126091E-1,3.122134447E0
1.396945337E0,6.241874218E0,-1.019961119E0,3.126922846E0
1.398950403E0,6.258634567E0,-1.053480864E0,3.141288519E0
1.400951736E0,6.272999763E0,-1.067846537E0,3.138894320E0
1.402953102E0,6.311308384E0,-1.063058019E0,3.117345810E0
1.404954435E0,6.337645531E0,-1.075029373E0,3.126922846E0
1.406955768E0,6.344828129E0,-1.087000728E0,3.134105682E0
1.408957834E0,6.368771076E0,-1.089395046E0,3.126922846E0
1.410958467E0,6.383136749E0,-1.070240855E0,3.112557173E0
1.412959800E0,6.402290821E0,-1.067846537E0,3.141288519E0
1.414961166E0,6.419050694E0,-1.065452337E0,3.148471355E0
1.416962499E0,6.421444893E0,-1.051086664E0,3.170019865E0
1.418963832E0,6.423839092E0,-1.036720991E0,3.172414064E0
1.422962398E0,6.411868095E0,-9.768640995E-1,3.165231228E0
1.424963731E0,6.419050694E0,-9.624984860E-1,3.186779737E0
1.426963831E0,6.397502422E0,-9.217957854E-1,3.203539610E0
1.428965031E0,6.402290821E0,-9.002473354E-1,3.208328247E0
1.430966364E0,6.380742550E0,-8.763045669E-1,3.229876757E0
1.432967697E0,6.368771076E0,-8.739103079E-1,3.225088120E0
1.434969030E0,6.361588001E0,-8.571503758E-1,3.241847992E0
1.436970363E0,6.354405403E0,-8.451790214E-1,3.232270956E0
1.438971696E0,6.342433929E0,-8.523618579E-1,3.234665155E0
1.440973029E0,6.342433929E0,-8.523618579E-1,3.225088120E0
1.442974362E0,6.340039730E0,-8.356019258E-1,3.246636629E0
1.444975695E0,6.320885658E0,-8.188419938E-1,3.213116884E0
1.446977028E0,6.308914185E0,-8.116591573E-1,3.201145411E0
1.448978394E0,6.272999763E0,-7.805336118E-1,3.170019865E0
1.450979727E0,6.261028767E0,-7.805336118E-1,3.170019865E0
1.452981060E0,6.234691620E0,-7.757450342E-1,3.124528646E0
1.454982426E0,6.232297421E0,-7.565908432E-1,3.079037428E0
1.456983759E0,6.227508545E0,-7.613793612E-1,3.057488918E0
1.460982725E0,6.201171875E0,-7.206767201E-1,3.028757572E0
1.462984058E0,6.201171875E0,-7.278595567E-1,3.031152010E0
1.464985391E0,6.174834728E0,-7.230709791E-1,3.062277555E0
1.466986757E0,6.167652130E0,-7.063110471E-1,3.098191500E0
1.468987390E0,6.158074856E0,-6.823683381E-1,3.105374336E0
1.470988723E0,6.112583637E0,-6.775797606E-1,3.158048391E0
1.472990089E0,6.086246490E0,-6.464542150E-1,3.203539610E0
1.474991422E0,6.062304020E0,-6.296942830E-1,3.308887720E0
1.476992755E0,6.016812801E0,-5.865973234E-1,3.416630268E0
1.478993788E0,5.990475655E0,-5.985686779E-1,3.478881359E0
1.480995121E0,5.935407162E0,-5.554717779E-1,3.629720688E0
1.482996554E0,5.865973473E0,-5.123748183E-1,3.804502726E0
1.484997920E0,5.830059052E0,-4.908263385E-1,3.885908127E0
1.486999253E0,5.760625362E0,-4.357580245E-1,4.103786945E0
1.489000719E0,5.657671452E0,-3.854782581E-1,4.338426113E0
1.491002085E0,5.628940105E0,-3.615354896E-1,4.427014351E0
1.493003418E0,5.554717541E0,-3.160442710E-1,4.707144260E0
1.495004751E0,5.499649048E0,-2.849186957E-1,4.932206154E0
1.497006117E0,5.475706577E0,-2.753416002E-1,5.047131062E0
1.499007450E0,5.435003757E0,-2.561874092E-1,5.298530102E0
1.501008783E0,5.408666611E0,-2.418217510E-1,5.432609558E0
1.503010149E0,5.401484013E0,-2.346389294E-1,5.674431324E0
1.505011482E0,5.442186832E0,-2.346389294E-1,5.933012962E0
1.507012815E0,5.442186832E0,-2.513988614E-1,6.052726746E0
1.509014148E0,5.499649048E0,-2.801301479E-1,6.289760113E0
1.511015481E0,5.569083214E0,-3.495641351E-1,6.495667458E0
1.513016814E0,5.612180233E0,-3.543526828E-1,6.574678421E0
1.515018147E0,5.719922543E0,-4.166038036E-1,6.687209606E0
1.517019480E0,5.818087578E0,-4.764606953E-1,6.773403645E0
1.519020846E0,5.899493217E0,-5.219519138E-1,6.794951916E0
1.521022179E0,6.028783798E0,-6.057515144E-1,6.773403645E0
1.523023512E0,6.105400562E0,-6.847625971E-1,6.754249096E0
1.525024878E0,6.251451492E0,-7.996878028E-1,6.684815407E0
1.527026211E0,6.402290821E0,-9.577099085E-1,6.579467297E0
1.529027544E0,6.490879059E0,-1.029538155E0,6.505244732E0
1.531028910E0,6.608198643E0,-1.173194647E0,6.354405403E0
1.533030243E0,6.713546753E0,-1.304879785E0,6.208354473E0
1.535031576E0,6.756643295E0,-1.359948039E0,6.134131908E0
1.537032942E0,6.866780281E0,-1.479661822E0,5.985687256E0
1.539034608E0,6.929031372E0,-1.539518714E0,5.865973473E0
1.541035941E0,6.950579643E0,-1.558672905E0,5.815693378E0
1.543037307E0,7.031985283E0,-1.606558442E0,5.741470814E0
1.545038640E0,7.106207848E0,-1.637683988E0,5.700768471E0
1.547039973E0,7.146910191E0,-1.644866824E0,5.643305779E0
1.549041339E0,7.233104229E0,-1.649655342E0,5.571477413E0
1.551042672E0,7.288172722E0,-1.640078187E0,5.554717541E0
1.553044005E0,7.412674904E0,-1.644866824E0,5.557111740E0
1.555045371E0,7.556331158E0,-1.625712633E0,5.566689014E0
1.557046704E0,7.628159523E0,-1.606558442E0,5.566689014E0
1.559048037E0,7.800547123E0,-1.589798450E0,5.585843086E0
1.561049403E0,7.975329399E0,-1.580221415E0,5.573871613E0
1.563053203E0,8.083071709E0,-1.575432777E0,5.552323341E0
1.565054536E0,8.293767929E0,-1.580221415E0,5.554717541E0
1.567055902E0,8.514040947E0,-1.575432777E0,5.521197796E0
1.569057235E0,8.616994858E0,-1.568249941E0,5.506832123E0
1.571059268E0,8.851634026E0,-1.575432777E0,5.516408920E0
1.573060634E0,8.966559410E0,-1.587404251E0,5.516408920E0
1.575061967E0,9.229928970E0,-1.589798450E0,5.521197796E0
1.577063300E0,9.457385063E0,-1.568249941E0,5.506832123E0
1.579064633E0,9.555550575E0,-1.585009933E0,5.521197796E0
1.581065966E0,9.816526413E0,-1.601769805E0,5.523591995E0
1.583067299E0,1.005116558E1,-1.558672905E0,5.485283375E0
1.585068632E0,1.015411949E1,-1.549095750E0,5.458946705E0
1.587069965E0,1.037678719E1,-1.527547359E0,5.439792156E0
1.589071331E0,1.057311726E1,-1.486844659E0,5.423032284E0
1.591072664E0,1.066888809E1,-1.436564922E0,5.408666611E0
1.593073997E0,1.082691097E1,-1.376708031E0,5.389512539E0
1.595075363E0,1.091789341E1,-1.324033976E0,5.370358467E0
1.597076696E0,1.107112694E1,-1.285725594E0,5.336838722E0
1.599078029E0,1.118126297E1,-1.185166001E0,5.329655647E0
1.601079395E0,1.125309181E1,-1.154040456E0,5.305713177E0
1.603080728E0,1.139674854E1,-1.065452337E0,5.253038883E0
1.605082061E0,1.155237579E1,-9.984126091E-1,5.231490612E0
1.607083427E0,1.160744381E1,-9.601042271E-1,5.188393593E0
1.609084760E0,1.169363785E1,-8.858816624E-1,5.128536701E0
1.611086093E0,1.175349522E1,-8.092648983E-1,5.080651283E0
1.613087459E0,1.178940868E1,-7.685621977E-1,5.051919937E0
1.615088792E0,1.187799740E1,-7.206767201E-1,5.051919937E0
1.617090125E0,1.195940304E1,-6.608198285E-1,5.035160065E0
1.619091491E0,1.194982529E1,-6.512427330E-1,5.018400192E0
1.621092824E0,1.198573971E1,-5.842030644E-1,5.016005516E0
1.625093056E0,1.201447105E1,-4.980091453E-1,5.030371189E0
1.627094389E0,1.204080772E1,-4.501236677E-1,5.051919937E0
1.629095722E0,1.203601933E1,-4.525179267E-1,5.063891411E0
1.631096388E0,1.203362560E1,-4.309694767E-1,5.071074009E0
1.633097721E0,1.198095131E1,-4.022381604E-1,5.087833881E0
1.635099054E0,1.195700836E1,-3.926610649E-1,5.116565228E0
1.637100420E0,1.191391182E1,-3.878725171E-1,5.130930901E0
1.639101753E0,1.186123753E1,-4.094209969E-1,5.176422119E0
1.641103086E0,1.182053471E1,-3.902668059E-1,5.190787792E0
1.643104452E0,1.172236919E1,-3.974496126E-1,5.236279011E0
1.645105785E0,1.167687798E1,-3.998439014E-1,5.253038883E0
1.647107118E0,1.155477047E1,-4.070267081E-1,5.327261448E0
1.649108151E0,1.142547894E1,-4.357580245E-1,5.391906738E0
1.651109484E0,1.137759399E1,-4.381522834E-1,5.427821159E0
1.653110817E0,1.125069714E1,-4.573064744E-1,5.509226322E0
1.655112150E0,1.112140656E1,-4.788549542E-1,5.578660488E0
1.657113483E0,1.106154919E1,-4.932205975E-1,5.619362831E0
1.659114849E0,1.094901848E1,-5.243461728E-1,5.724710941E0
1.661116182E0,1.082930470E1,-5.482889414E-1,5.837242126E0
1.663117315E0,1.078860188E1,-5.602602959E-1,5.885127544E0
1.665118681E0,1.069522572E1,-5.842030644E-1,6.014418125E0
1.667120014E0,1.061382008E1,-6.081457734E-1,6.043149471E0
1.669121347E0,1.056593513E1,-6.320885420E-1,6.138920784E0
1.671122547E0,1.046537495E1,-6.680026650E-1,6.215537548E0
1.673123780E0,1.042467213E1,-6.823683381E-1,6.256239891E0
1.675125113E0,1.032411289E1,-7.350423932E-1,6.304125786E0
1.677126146E0,1.026186180E1,-7.470137477E-1,6.330462456E0
1.679127279E0,1.021397591E1,-7.541965842E-1,6.359193802E0
1.681128612E0,1.011102295E1,-7.901107073E-1,6.383136749E0
1.683129978E0,1.004158878E1,-7.996878028E-1,6.423839092E0
1.685131311E0,1.000567436E1,-8.212362528E-1,6.431022167E0
1.687132644E0,9.948211670E0,-8.595446348E-1,6.457359314E0
1.689134010E0,9.909903526E0,-8.763045669E-1,6.471724987E0
1.691135343E0,9.866806030E0,-8.810931444E-1,6.495667458E0
1.693136676E0,9.842864037E0,-9.098244309E-1,6.507638931E0
1.695138042E0,9.804554939E0,-9.217957854E-1,6.517216206E0
1.697139375E0,9.749486923E0,-9.481328130E-1,6.500456333E0
1.699140708E0,9.672870636E0,-9.601042271E-1,6.490879059E0
1.701142074E0,9.641744614E0,-9.672870040E-1,6.505244732E0
1.703143407E0,9.574705124E0,-9.864411950E-1,6.502850533E0
1.705144740E0,9.505270958E0,-1.005595446E0,6.459753513E0
1.707146106E0,9.462174416E0,-1.034326673E0,6.459753513E0
1.709147572E0,9.375980377E0,-1.067846537E0,6.426233768E0
1.711148905E0,9.253871918E0,-1.075029373E0,6.371165276E0
1.713150971E0,9.182044029E0,-1.084606528E0,6.352011204E0
1.715152304E0,9.076695442E0,-1.106154919E0,6.296942711E0
1.717153637E0,8.954587936E0,-1.101366401E0,6.263422966E0
1.719154970E0,8.913885117E0,-1.118126392E0,6.229903221E0
1.721156303E0,8.775016785E0,-1.091789365E0,6.196382999E0
1.723157536E0,8.710371971E0,-1.082212210E0,6.167652130E0
1.725158869E0,8.581081390E0,-1.065452337E0,6.153286457E0
1.727160202E0,8.449396133E0,-1.065452337E0,6.134131908E0
1.729161568E0,8.303344727E0,-1.034326673E0,6.117372036E0
1.731163068E0,8.238699913E0,-1.010383964E0,6.095823765E0
1.733166334E0,8.090254784E0,-9.624984860E-1,6.069486618E0
1.735167700E0,7.944203854E0,-9.146129489E-1,6.057515144E0
1.737169366E0,7.884346962E0,-8.858816624E-1,6.016812801E0
1.739170899E0,7.716747761E0,-8.284190893E-1,6.009629726E0
1.741172265E0,7.635342598E0,-8.116591573E-1,5.973715782E0
1.743173598E0,7.455771923E0,-7.637736797E-1,5.923435688E0
1.745174631E0,7.393520832E0,-7.613793612E-1,5.901887417E0
1.747176297E0,7.221132755E0,-7.039167881E-1,5.844424725E0
1.749177630E0,7.063110828E0,-6.871568561E-1,5.803721905E0
1.751178963E0,7.003253937E0,-6.775797606E-1,5.782173634E0
1.753180329E0,6.850020409E0,-6.608198285E-1,5.734288216E0
1.755181662E0,6.694392204E0,-6.560313106E-1,5.676825523E0
1.757187195E0,6.608198643E0,-6.488484740E-1,5.648094177E0
1.759188561E0,6.464541912E0,-6.320885420E-1,5.604997158E0
1.761189894E0,6.330462456E0,-6.249057055E-1,5.554717541E0
1.763191227E0,6.253845692E0,-6.392713785E-1,5.547534943E0
1.765192593E0,6.114977837E0,-6.584255695E-1,5.525986195E0
1.767193926E0,6.062304020E0,-6.751855016E-1,5.490072250E0
1.769195426E0,5.897099018E0,-6.943396926E-1,5.470917702E0
1.771196792E0,5.763019562E0,-6.943396926E-1,5.413455486E0
1.773197425E0,5.672037125E0,-7.039167881E-1,5.408666611E0
1.775198758E0,5.518803596E0,-7.039167881E-1,5.411061287E0
1.777200124E0,5.367964268E0,-7.230709791E-1,5.423032284E0
1.779201457E0,5.300924301E0,-7.350423932E-1,5.418243885E0
1.781202790E0,5.154873848E0,-7.518022656E-1,5.432609558E0
1.783204456E0,5.011217117E0,-7.565908432E-1,5.473312378E0
1.785205789E0,4.946571827E0,-7.709565163E-1,5.494860649E0
1.787207122E0,4.819674969E0,-7.901107073E-1,5.564294815E0
1.789208455E0,4.680807114E0,-8.068706393E-1,5.621757030E0
1.791209788E0,4.606584549E0,-7.996878028E-1,5.650488377E0
1.795210621E0,4.343214512E0,-8.715160489E-1,5.777385235E0
1.797214521E0,4.280963421E0,-8.810931444E-1,5.813299179E0
1.799215887E0,4.170826912E0,-9.146129489E-1,5.861184597E0
1.801217220E0,4.108575344E0,-9.313728809E-1,5.889915943E0
1.803218553E0,4.010410309E0,-9.672870040E-1,5.954561234E0
1.805220219E0,3.905062199E0,-1.007989645E0,6.014418125E0
1.807221252E0,3.859570980E0,-1.024749637E0,6.043149471E0
1.809222585E0,3.749434233E0,-1.058269501E0,6.107795238E0
1.811223951E0,3.656057596E0,-1.106154919E0,6.160469055E0
1.813225284E0,3.608172178E0,-1.125309110E0,6.189200401E0
1.815226617E0,3.543526649E0,-1.144463301E0,6.253845692E0
1.819225549E0,3.399870157E0,-1.166011810E0,6.349617004E0
1.821226882E0,3.325647593E0,-1.173194647E0,6.407079220E0
1.823228248E0,3.289733648E0,-1.175588965E0,6.442993641E0
1.825229581E0,3.251425266E0,-1.180377483E0,6.514821529E0
1.827230914E0,3.196356773E0,-1.163617611E0,6.553130150E0
1.829232280E0,3.172414064E0,-1.177983165E0,6.589044094E0
1.831233613E0,3.143682718E0,-1.173194647E0,6.608198643E0
1.833234946E0,3.150865555E0,-1.142069101E0,6.634535313E0
1.835236312E0,3.146077156E0,-1.110943556E0,6.641718388E0
1.837237645E0,3.146077156E0,-1.079817891E0,6.641718388E0
1.839238978E0,3.158048391E0,-1.072635174E0,6.632141113E0
1.841240344E0,3.170019865E0,-1.063058019E0,6.591438770E0
1.843241677E0,3.220299721E0,-1.051086664E0,6.574678421E0
1.845243010E0,3.225088120E0,-1.027143836E0,6.550735950E0
1.847244376E0,3.251425266E0,-1.007989645E0,6.526793003E0
1.849245709E0,3.284945011E0,-9.624984860E-1,6.505244732E0
1.851247042E0,3.301704884E0,-9.481328130E-1,6.505244732E0
1.853248408E0,3.344801903E0,-9.361614585E-1,6.522004604E0
1.855249741E0,3.385504484E0,-9.170072675E-1,6.529187202E0
1.859249840E0,3.466909885E0,-8.619389534E-1,6.577073097E0
1.861251173E0,3.517189741E0,-8.595446348E-1,6.598621368E0
1.863252173E0,3.560286522E0,-8.403904438E-1,6.634535313E0
1.865260106E0,3.646480560E0,-8.140534163E-1,6.684815407E0
1.867261439E0,3.689577579E0,-8.116591573E-1,6.699181080E0
1.869262805E0,3.754222870E0,-7.781392932E-1,6.749460697E0
1.871264138E0,3.823656797E0,-7.637736797E-1,6.814105988E0
1.873265471E0,3.864359617E0,-7.589851022E-1,6.847625732E0
1.875266837E0,3.936187744E0,-7.541965842E-1,6.914665699E0
1.877268170E0,4.039141655E0,-7.470137477E-1,6.991282463E0
1.879269070E0,4.079844475E0,-7.302538157E-1,7.022408009E0
1.881270436E0,4.175615311E0,-7.350423932E-1,7.096630573E0
1.883271802E0,4.292934895E0,-7.158881426E-1,7.178035736E0
1.885273135E0,4.338426113E0,-7.350423932E-1,7.225921154E0
1.887274501E0,4.434196949E0,-7.015225291E-1,7.324086666E0
1.889275834E0,4.494053841E0,-7.158881426E-1,7.357606411E0
1.891277167E0,4.599401951E0,-7.326480746E-1,7.448588848E0
1.893278533E0,4.719115734E0,-7.613793612E-1,7.522811413E0
1.895279866E0,4.783761024E0,-7.613793612E-1,7.573091030E0
1.897281199E0,4.913052082E0,-8.044763207E-1,7.664073467E0
1.899282565E0,4.980091572E0,-8.260248303E-1,7.776604652E0
1.901283898E0,5.063891411E0,-8.547561169E-1,7.831672668E0
1.903285231E0,5.181210518E0,-8.954587579E-1,7.937020779E0
1.905286597E0,5.272192955E0,-9.170072675E-1,8.016032219E0
1.907287763E0,5.329655647E0,-9.289786220E-1,8.073494911E0
1.909289096E0,5.430215359E0,-9.505270720E-1,8.145322800E0
1.911290462E0,5.537957668E0,-9.744698405E-1,8.205180168E0
1.913291795E0,5.600208759E0,-9.624984860E-1,8.255459785E0
1.915293128E0,5.698374271E0,-9.744698405E-1,8.322499275E0
1.917294194E0,5.736682415E0,-9.816526771E-1,8.341653824E0
1.919296227E0,5.830059052E0,-1.005595446E0,8.379961967E0
1.921297560E0,5.913858891E0,-1.022355318E0,8.396721840E0
1.923299260E0,5.947378635E0,-1.015172482E0,8.408693314E0
1.927295326E0,6.038361073E0,-1.019961119E0,8.435029984E0
1.929296659E0,6.057515144E0,-1.019961119E0,8.430241585E0
1.931297859E0,6.091034889E0,-1.031932473E0,8.463761330E0
1.933299192E0,6.107795238E0,-1.019961119E0,8.497281075E0
1.935300525E0,6.098217964E0,-1.010383964E0,8.518829346E0
1.937301558E0,6.081458092E0,-1.005595446E0,8.573898315E0
1.939302924E0,6.076669693E0,-1.031932473E0,8.590658188E0
1.941304257E0,6.062304020E0,-1.027143836E0,8.652909279E0
1.943305257E0,6.035966873E0,-1.015172482E0,8.700794220E0
1.945306623E0,6.002447128E0,-1.003201127E0,8.710371971E0
1.947307956E0,5.956955910E0,-9.840469360E-1,8.763046265E0
1.949309289E0,5.925830364E0,-9.792584181E-1,8.806142807E0
1.951310655E0,5.913858891E0,-9.768640995E-1,8.830085754E0
1.953311988E0,5.856396198E0,-9.624984860E-1,8.868393898E0
1.955313321E0,5.808510780E0,-9.864411950E-1,8.904308319E0
1.957314687E0,5.765413761E0,-1.000806928E0,8.909096718E0
1.959316020E0,5.710345268E0,-1.010383964E0,8.964164734E0
1.961317353E0,5.643305779E0,-1.024749637E0,8.952193260E0
1.963318719E0,5.624151707E0,-1.036720991E0,9.007262230E0
1.965320052E0,5.564294815E0,-1.075029373E0,9.076695442E0
1.967321552E0,5.528380394E0,-1.084606528E0,9.117398262E0
1.969322585E0,5.490072250E0,-1.118126392E0,9.162889481E0
1.971323918E0,5.425426483E0,-1.122914910E0,9.177255630E0
1.973325251E0,5.394300938E0,-1.142069101E0,9.189227104E0
1.975326617E0,5.324867249E0,-1.199531674E0,9.203592300E0
1.977328350E0,5.265010357E0,-1.218685865E0,9.234718323E0
1.979328983E0,5.236279011E0,-1.230657220E0,9.249083519E0
1.981330349E0,5.181210518E0,-1.297696948E0,9.284997940E0
1.983331682E0,5.099805355E0,-1.364736676E0,9.304151535E0
1.985333015E0,5.063891411E0,-1.388679385E0,9.330489159E0
1.987334381E0,4.994457245E0,-1.424593568E0,9.356825829E0
1.989335714E0,4.965725899E0,-1.438959122E0,9.383162498E0
1.991337180E0,4.948966026E0,-1.455719113E0,9.450202942E0
1.993338546E0,4.884320736E0,-1.448536277E0,9.481328011E0
1.995339879E0,4.865166187E0,-1.458113313E0,9.493299484E0
1.997341512E0,4.781366825E0,-1.465296149E0,9.522030830E0
1.999342845E0,4.719115734E0,-1.431776285E0,9.548367500E0
2.001344178E0,4.692778587E0,-1.422199249E0,9.548367500E0
2.003345811E0,4.659258842E0,-1.410227895E0,9.591464996E0
2.005347844E0,4.620950222E0,-1.417410731E0,9.601041794E0
2.007349177E0,4.611373425E0,-1.436564922E0,9.591464996E0
2.009350543E0,4.601796150E0,-1.441353440E0,9.593858719E0
2.011351876E0,4.558699131E0,-1.405439258E0,9.608224869E0
2.013353209E0,4.529967785E0,-1.395862222E0,9.605830193E0
2.015354575E0,4.508419514E0,-1.395862222E0,9.601041794E0
2.017356075E0,4.477293968E0,-1.388679385E0,9.593858719E0
2.019357408E0,4.441379547E0,-1.364736676E0,9.560338974E0
2.021358774E0,4.393494129E0,-1.324033976E0,9.529213905E0
2.023360107E0,4.333637238E0,-1.312062621E0,9.534002304E0
2.025361440E0,4.290540695E0,-1.268965602E0,9.526819229E0
2.027362806E0,4.213923454E0,-1.209108829E0,9.529213905E0
2.029364472E0,4.175615311E0,-1.175588965E0,9.541185379E0
2.031365805E0,4.106181145E0,-1.089395046E0,9.562733650E0
2.033367171E0,4.043930054E0,-1.000806928E0,9.598648071E0
2.035368504E0,3.984073162E0,-9.146129489E-1,9.629773140E0
2.037370437E0,3.948159218E0,-8.691217303E-1,9.651321411E0
2.039371803E0,3.938581944E0,-8.140534163E-1,9.672870636E0
2.041373136E0,3.893090725E0,-7.278595567E-1,9.730332375E0
2.043374136E0,3.866753817E0,-6.296942830E-1,9.759063721E0
2.045375502E0,3.847599506E0,-5.602602959E-1,9.780612946E0
2.047376835E0,3.852388144E0,-4.668835998E-1,9.826104164E0
2.049378168E0,3.857176781E0,-3.567469418E-1,9.869200706E0
2.051379534E0,3.866753817E0,-3.064671755E-1,9.900326729E0
2.053380867E0,3.888302326E0,-2.250618339E-1,9.962577820E0
2.055382200E0,3.902667999E0,-1.316851079E-1,1.003680038E1
2.057383566E0,3.909850836E0,-9.577099234E-2,1.008947372E1
2.059384899E0,3.952947617E0,-3.112557158E-2,1.016369629E1
2.061386232E0,3.957736254E0,-1.197137404E-2,1.020439911E1
2.063387265E0,3.972101927E0,6.225114316E-2,1.025228500E1
2.065387898E0,4.010410309E0,1.197137386E-1,1.028819847E1
2.067389231E0,4.015198708E0,1.460507661E-1,1.029777622E1
2.069390564E0,4.024775982E0,1.987248063E-1,1.029777622E1
2.071391897E0,4.027170181E0,2.466102988E-1,1.028341007E1
2.073393230E0,4.024775982E0,2.633702159E-1,1.024510193E1
2.075394563E0,3.998438835E0,3.160442710E-1,1.018763924E1
2.077395729E0,3.988861799E0,3.447755575E-1,1.013017654E1
2.079397095E0,3.974496126E0,3.591412306E-1,1.009186840E1
2.081398428E0,3.902667999E0,3.663240373E-1,1.006313705E1
2.083399761E0,3.821262598E0,3.782954216E-1,1.003201103E1
2.085401127E0,3.794925690E0,3.998439014E-1,1.002243423E1
2.087402460E0,3.706337452E0,4.357580245E-1,1.003680038E1
2.089403793E0,3.677606106E0,4.166038036E-1,1.005356026E1
2.091405159E0,3.584229469E0,4.285751879E-1,1.010862827E1
2.093406492E0,3.512401104E0,4.453351200E-1,1.013257122E1
2.095407825E0,3.392687321E0,4.549122155E-1,1.019482231E1
2.097408491E0,3.363956213E0,4.620950520E-1,1.023313046E1
2.099409824E0,3.263396502E0,4.453351200E-1,1.032890129E1
2.101411157E0,3.241847992E0,4.501236677E-1,1.036481571E1
2.103412857E0,3.165231228E0,4.477293789E-1,1.048452950E1
2.105414190E0,3.114951611E0,4.285751879E-1,1.057072353E1
2.107415523E0,3.093403101E0,4.022381604E-1,1.061621475E1
2.109416889E0,3.014391899E0,3.711125851E-1,1.072395706E1
2.111418222E0,2.980872154E0,3.399870098E-1,1.076226521E1
2.113419555E0,2.942563772E0,2.849186957E-1,1.084127617E1
2.115420921E0,2.909043789E0,2.346389294E-1,1.093944168E1
2.117422254E0,2.875524044E0,2.202732861E-1,1.098014450E1
2.119423554E0,2.839609861E0,1.747820675E-1,1.107352066E1
2.121424854E0,2.858764172E0,1.173194647E-1,1.115971470E1
2.123426454E0,2.873129845E0,9.098244458E-2,1.118605232E1
2.125427487E0,2.861158371E0,3.830839694E-2,1.120760059E1
2.127429187E0,2.875524044E0,-6.225114316E-2,1.120281219E1
2.129430520E0,2.892283916E0,-1.029538140E-1,1.120760059E1
2.131431853E0,2.930592299E0,-2.035133541E-1,1.117168617E1
2.133433219E0,2.944957972E0,-2.992843390E-1,1.112380123E1
2.135434552E0,2.971295118E0,-3.495641351E-1,1.105197239E1
2.137435885E0,3.002420664E0,-4.836435020E-1,1.097056675E1
2.139437218E0,3.038334846E0,-5.219519138E-1,1.091071033E1
2.141438551E0,3.079037428E0,-6.249057055E-1,1.076944828E1
2.143439884E0,3.076643229E0,-7.110996246E-1,1.058748341E1
2.145441217E0,3.047911882E0,-7.326480746E-1,1.048931789E1
2.147442550E0,3.014391899E0,-8.356019258E-1,1.027862167E1
2.149443883E0,3.002420664E0,-9.026415944E-1,1.009186840E1
2.151445216E0,2.973689318E0,-9.146129489E-1,1.000806904E1
2.153446549E0,2.873129845E0,-9.768640995E-1,9.826104164E0
2.155447915E0,2.748627424E0,-1.015172482E0,9.706390381E0
2.157449515E0,2.662433624E0,-1.034326673E0,9.629773140E0
2.159450848E0,2.485257149E0,-1.077423692E0,9.514847755E0
2.161452214E0,2.360754967E0,-1.075029373E0,9.469356537E0
2.163456980E0,2.109356165E0,-1.120520592E0,9.385557175E0
2.165458313E0,1.853168726E0,-1.146857619E0,9.352037430E0
2.167459679E0,1.699935079E0,-1.146857619E0,9.347249031E0
2.169461012E0,1.426987767E0,-1.151646137E0,9.378374100E0
2.171462345E0,1.151646137E0,-1.132491946E0,9.426259995E0
2.173463711E0,1.010383964E0,-1.149251938E0,9.474145889E0
2.175465044E0,7.374366522E-1,-1.144463301E0,9.543579102E0
2.177473544E0,4.692778587E-1,-1.132491946E0,9.601041794E0
2.179474944E0,3.375927508E-1,-1.125309110E0,9.627379417E0
2.181476344E0,7.182824612E-2,-1.122914910E0,9.694418907E0
2.183477744E0,-6.703969836E-2,-1.120520592E0,9.723150253E0
2.185479410E0,-3.711125851E-1,-1.103760719E0,9.763853073E0
2.187480410E0,-6.656084061E-1,-1.098972082E0,9.811738014E0
2.189481743E0,-8.044763207E-1,-1.091789365E0,9.859623909E0
2.191483109E0,-1.070240855E0,-1.079817891E0,9.972154617E0
2.193484442E0,-1.290514112E0,-1.060663700E0,1.008708000E1
2.195485475E0,-1.395862222E0,-1.043903828E0,1.015890789E1
2.197486875E0,-1.601769805E0,-9.912297726E-1,1.031214142E1
2.199488208E0,-1.738243461E0,-9.385557175E-1,1.047734642E1
2.201489541E0,-1.824437380E0,-9.361614585E-1,1.057551193E1
2.203490907E0,-1.910631299E0,-8.882759809E-1,1.077423668E1
2.205492240E0,-1.975276709E0,-8.236305118E-1,1.087479591E1
2.207493573E0,-2.004008055E0,-7.925049663E-1,1.112380123E1
2.209494939E0,-2.015979290E0,-7.134938836E-1,1.138956547E1
2.211496272E0,-1.992036581E0,-6.799740195E-1,1.151885605E1
2.213497605E0,-1.910631299E0,-5.842030644E-1,1.178940868E1
2.215498938E0,-1.776551962E0,-5.243461728E-1,1.206475067E1
2.217500004E0,-1.707117915E0,-4.692778587E-1,1.220601273E1
2.219501337E0,-1.505998850E0,-4.094209969E-1,1.237361240E1
2.221502670E0,-1.254600048E0,-3.495641351E-1,1.255078888E1
2.225501602E0,-8.379961848E-1,-2.633702159E-1,1.273514748E1
2.227502935E0,-5.411061049E-1,-2.035133541E-1,1.276387882E1
2.229504268E0,-3.998439014E-1,-1.604164094E-1,1.271359921E1
2.231505634E0,-1.125309169E-1,-9.816526622E-2,1.249571991E1
2.233506967E0,3.591412306E-2,-5.506832153E-2,1.232812119E1
2.235508300E0,3.375927508E-1,-3.112557158E-2,1.191870022E1
2.239503833E0,7.182824612E-1,3.591412306E-2,1.114056110E1
2.241505166E0,9.313728809E-1,5.027977005E-2,1.056593513E1
2.243506532E0,1.122914910E0,8.858817071E-2,9.976943016E0
2.245507865E0,1.213897347E0,9.577099234E-2,9.751881599E0
2.247509198E0,1.362342358E0,9.816526622E-2,9.347249031E0
2.249510564E0,1.417410731E0,1.268965602E-1,8.959376335E0
2.251511897E0,1.431776285E0,1.221080124E-1,8.806142807E0
2.253513230E0,1.422199249E0,9.577099234E-2,8.533195496E0
2.255514896E0,1.326428294E0,5.506832153E-2,8.384750366E0
2.257516196E0,1.259388566E0,4.309694469E-2,8.150111198E0
2.259517529E0,1.072635174E0,-1.675992459E-2,7.965752125E0
2.261518562E0,9.672870040E-1,-3.830839694E-2,7.898712635E0
2.263519895E0,7.254652381E-1,-8.858817071E-2,7.824490070E0
2.265521228E0,4.453351200E-1,-1.077423692E-1,7.776604652E0
2.267522294E0,2.992843390E-1,-1.149251908E-1,7.786181450E0
2.269523627E0,3.351984918E-2,-1.125309169E-1,7.812518597E0
2.271524960E0,-2.825244367E-1,-1.101366431E-1,7.903501034E0
2.273526326E0,-4.357580245E-1,-1.101366431E-1,7.970541000E0
2.275527892E0,-7.398309112E-1,-8.858817071E-2,8.130957603E0
2.277529225E0,-1.041509509E0,-7.422251999E-2,8.308133125E0
2.279530591E0,-1.168406129E0,-5.027977005E-2,8.411087036E0
2.281531924E0,-1.381496549E0,-2.633702382E-2,8.640937805E0
2.283533590E0,-1.470084786E0,-3.112557158E-2,8.782199860E0
2.285534923E0,-1.740637779E0,-1.197137404E-2,8.956981659E0
2.287536256E0,-1.965699673E0,7.182824425E-3,9.148524284E0
2.289537589E0,-2.104567528E0,1.675992459E-2,9.229928970E0
2.291538922E0,-2.363149166E0,4.549122229E-2,9.411893845E0
2.293540255E0,-2.621730804E0,5.267404765E-2,9.641744614E0
2.295541621E0,-2.727078915E0,5.027977005E-2,9.739910126E0
2.297542954E0,-2.930592299E0,5.027977005E-2,9.909903526E0
2.299544287E0,-3.074248791E0,5.027977005E-2,1.013975334E1
2.301545653E0,-3.124528646E0,5.267404765E-2,1.023552513E1
2.303546986E0,-3.205934048E0,4.309694469E-2,1.044622135E1
2.305548319E0,-3.249030828E0,2.873129770E-2,1.057311726E1
2.307549685E0,-3.239453793E0,9.577099234E-3,1.084127617E1
2.309551018E0,-3.215511084E0,-3.591412306E-2,1.108788681E1
2.311552451E0,-3.177202702E0,-5.506832153E-2,1.120281219E1
2.313553817E0,-3.074248791E0,-1.484450400E-1,1.143505669E1
2.315555150E0,-2.932986736E0,-2.202732861E-1,1.170560932E1
2.317556483E0,-2.853975534E0,-2.633702159E-1,1.182053471E1
2.319557849E0,-2.693559170E0,-3.615354896E-1,1.207432747E1
2.321559382E0,-2.523565531E0,-4.501236677E-1,1.226826382E1
2.323560715E0,-2.432583094E0,-5.219519138E-1,1.235445786E1
2.325562081E0,-2.207521439E0,-6.249057055E-1,1.249332619E1
2.327563714E0,-1.970488191E0,-7.206767201E-1,1.251966286E1
2.329565047E0,-1.841197371E0,-7.541965842E-1,1.253163433E1
2.331566413E0,-1.606558442E0,-8.284190893E-1,1.244544029E1
2.333567746E0,-1.489238977E0,-8.571503758E-1,1.237840080E1
2.335568846E0,-1.249811411E0,-9.170072675E-1,1.221319580E1
2.337570212E0,-1.005595446E0,-9.217957854E-1,1.201686573E1
2.339571545E0,-9.026415944E-1,-9.505270720E-1,1.190912247E1
2.341572878E0,-6.680026650E-1,-1.000806928E0,1.170800400E1
2.343574244E0,-4.429408312E-1,-1.027143836E0,1.152843285E1
2.345575577E0,-3.423812985E-1,-1.039115310E0,1.143745041E1
2.347576910E0,-1.388679445E-1,-1.053480864E0,1.123154354E1
2.349578276E0,4.788549617E-2,-1.098972082E0,1.101605797E1
2.351579609E0,1.245022863E-1,-1.113337755E0,1.091071033E1
2.353580942E0,3.304099143E-1,-1.139674783E0,1.070480251E1
2.355582275E0,4.429408312E-1,-1.144463301E0,1.057790565E1
2.357583608E0,6.344828010E-1,-1.166011810E0,1.032650757E1
2.359584941E0,8.667274714E-1,-1.170800328E0,1.010383987E1
2.361586274E0,9.984126091E-1,-1.182771802E0,1.000327969E1
2.363593740E0,1.271359921E0,-1.192348838E0,9.797372818E0
2.365595106E0,1.575432777E0,-1.206714511E0,9.644139290E0
2.367596439E0,1.716695070E0,-1.182771802E0,9.543579102E0
2.369597772E0,2.035133600E0,-1.168406129E0,9.378374100E0
2.371599038E0,2.322446585E0,-1.134886265E0,9.263449669E0
2.373600371E0,2.480468750E0,-1.115732074E0,9.217958450E0
2.375601704E0,2.760598898E0,-1.072635174E0,9.167677879E0
2.377603070E0,3.050306082E0,-1.015172482E0,9.138946533E0
2.379604403E0,3.189173937E0,-9.792584181E-1,9.095849991E0
2.381605869E0,3.469304085E0,-9.361614585E-1,9.050358772E0
2.383607235E0,3.620143414E0,-9.002473354E-1,9.038387299E0
2.385608568E0,3.842811108E0,-8.427847624E-1,9.019232750E0
2.387609901E0,4.070267200E0,-7.805336118E-1,9.004867554E0
2.389611267E0,4.180403709E0,-7.302538157E-1,9.004867554E0
2.391612600E0,4.369551659E0,-6.703969240E-1,9.004867554E0
2.393614266E0,4.549122334E0,-6.033572555E-1,9.000079155E0
2.395615632E0,4.726298332E0,-5.506832004E-1,8.995290756E0
2.397616965E0,4.783761024E0,-5.243461728E-1,8.968953133E0
2.399618298E0,4.901080608E0,-4.525179267E-1,8.916279793E0
2.401619664E0,4.936994553E0,-4.381522834E-1,8.887548447E0
2.403621364E0,4.965725899E0,-3.519583941E-1,8.825297356E0
2.405622697E0,4.972908974E0,-3.208328187E-1,8.796566010E0
2.407624063E0,4.972908974E0,-2.298503816E-1,8.727131844E0
2.409625396E0,4.948966026E0,-1.460507661E-1,8.691217422E0
2.411626729E0,4.917840481E0,-9.337671846E-2,8.660092354E0
2.413628095E0,4.855589390E0,-1.436564885E-2,8.640937805E0
2.415629428E0,4.735875607E0,6.703969836E-2,8.619389534E0
2.417630761E0,4.654470444E0,1.053480953E-1,8.597841263E0
2.419632127E0,4.513207912E0,1.580221355E-1,8.585869789E0
2.421633327E0,4.352791786E0,2.513988614E-1,8.566715240E0
2.425629860E0,4.024775982E0,3.328042030E-1,8.494887352E0
2.427631193E0,3.905062199E0,3.735068738E-1,8.456578255E0
2.429632526E0,3.656057596E0,3.998439014E-1,8.411087036E0
2.431633859E0,3.416630268E0,4.764606953E-1,8.387145042E0
2.433635192E0,3.268185139E0,5.004034638E-1,8.353624344E0
2.435636558E0,2.964112282E0,5.219519138E-1,8.303344727E0
2.437637891E0,2.664827824E0,5.411061049E-1,8.274613380E0
2.439639224E0,2.494834423E0,5.770202279E-1,8.253065109E0
2.441640590E0,2.147664547E0,6.033572555E-1,8.233911514E0
2.443641923E0,1.798100352E0,6.105400920E-1,8.253065109E0
2.445643256E0,1.616135478E0,6.177229285E-1,8.245882034E0
2.447644622E0,1.249811411E0,6.153286099E-1,8.279402733E0
2.449645955E0,8.978530765E-1,5.842030644E-1,8.300951004E0
2.451647288E0,7.087053657E-1,5.961744189E-1,8.322499275E0
2.453648321E0,3.759011328E-1,5.674431324E-1,8.344047546E0
2.455649654E0,6.225114316E-2,5.291347504E-1,8.384750366E0
2.457650987E0,-9.337671846E-2,5.147690773E-1,8.401510239E0
2.459659453E0,-3.950553536E-1,4.788549542E-1,8.435029984E0
2.461660553E0,-5.291347504E-1,4.573064744E-1,8.447001457E0
2.463661519E0,-7.781392932E-1,4.309694767E-1,8.478127480E0
2.465662885E0,-1.012778282E0,4.118152559E-1,8.490098000E0
2.467664218E0,-1.142069101E0,4.022381604E-1,8.497281075E0
2.469665551E0,-1.379102230E0,3.663240373E-1,8.523618698E0
2.471666917E0,-1.594586968E0,3.519583941E-1,8.554743767E0
2.473668250E0,-1.699935079E0,3.519583941E-1,8.588263512E0
2.475669583E0,-1.910631299E0,3.160442710E-1,8.609811783E0
2.477670949E0,-1.999219418E0,3.136500120E-1,8.650514603E0
2.479672282E0,-2.188367128E0,3.016786277E-1,8.700794220E0
2.481673748E0,-2.355966330E0,2.897072434E-1,8.777411461E0
2.483675114E0,-2.446948767E0,3.064671755E-1,8.789382935E0
2.485676447E0,-2.604970932E0,2.897072434E-1,8.851634026E0
2.487677780E0,-2.731867552E0,3.136500120E-1,8.901913643E0
2.489679146E0,-2.784541607E0,2.968900800E-1,8.935433388E0
2.491680479E0,-2.885101080E0,2.968900800E-1,8.997684479E0
2.493681812E0,-2.952140808E0,2.921015322E-1,9.062330246E0
2.495683145E0,-2.976083517E0,2.825244367E-1,9.081484795E0
2.497684178E0,-3.007209063E0,2.705530524E-1,9.174860954E0
2.499685511E0,-3.043123245E0,2.873129845E-1,9.213169098E0
2.501686844E0,-3.059883118E0,2.921015322E-1,9.289786339E0
2.503688177E0,-3.057488918E0,2.921015322E-1,9.361614227E0
2.505689543E0,-3.047911882E0,2.897072434E-1,9.395133972E0
2.507690876E0,-3.033546209E0,2.849186957E-1,9.483722687E0
2.509692209E0,-2.961717844E0,2.657645047E-1,9.557945251E0
2.511693575E0,-2.916226625E0,2.585816681E-1,9.608224869E0
2.513694908E0,-2.868341208E0,2.274561077E-1,9.665687561E0
2.515696241E0,-2.774964571E0,2.298503816E-1,9.747093201E0
2.517697607E0,-2.739050388E0,2.059076279E-1,9.759063721E0
2.521693406E0,-2.482862949E0,1.604164094E-1,9.864412308E0
2.523694772E0,-2.413429022E0,1.508393139E-1,9.881172180E0
2.525696105E0,-2.264983892E0,1.292908341E-1,9.917086601E0
2.527697438E0,-2.188367128E0,1.245022863E-1,9.921875000E0
2.529698804E0,-1.996825218E0,8.858817071E-2,9.962577820E0
2.531700137E0,-1.838803053E0,5.267404765E-2,9.950606346E0
2.533701470E0,-1.740637779E0,2.633702382E-2,9.950606346E0
2.535702836E0,-1.580221415E0,-3.591412306E-2,9.929058075E0
2.537704169E0,-1.422199249E0,-8.619388938E-2,9.921875000E0
2.539705502E0,-1.350371003E0,-1.077423692E-1,9.890748978E0
2.541706868E0,-1.211503029E0,-1.532335877E-1,9.878777504E0
2.543708434E0,-1.098972082E0,-1.795706153E-1,9.854835510E0
2.545709767E0,-1.043903828E0,-1.963305324E-1,9.833286285E0
2.547711133E0,-9.265843630E-1,-2.537931204E-1,9.811738014E0
2.549712466E0,-8.858816624E-1,-2.825244367E-1,9.797372818E0
2.551713799E0,-7.925049663E-1,-3.088614643E-1,9.797372818E0
2.553715165E0,-7.254652381E-1,-3.375927508E-1,9.756669998E0
2.555716498E0,-6.775797606E-1,-3.615354896E-1,9.756669998E0
2.557718131E0,-6.105400920E-1,-3.902668059E-1,9.754275322E0
2.559719497E0,-5.746259689E-1,-3.998439014E-1,9.732727051E0
2.561720530E0,-5.506832004E-1,-4.022381604E-1,9.742303848E0
2.563721863E0,-5.171633363E-1,-3.998439014E-1,9.708784103E0
2.565723196E0,-5.004034638E-1,-3.735068738E-1,9.692024231E0
2.567724529E0,-4.788549542E-1,-3.615354896E-1,9.687235832E0
2.569725862E0,-4.597007632E-1,-3.375927508E-1,9.670475960E0
2.571727195E0,-4.597007632E-1,-3.304099143E-1,9.660899162E0
2.573728528E0,-4.573064744E-1,-3.088614643E-1,9.646533012E0
2.575729894E0,-4.597007632E-1,-3.016786277E-1,9.646533012E0
2.577731227E0,-4.525179267E-1,-2.633702159E-1,9.646533012E0
2.579732560E0,-4.620950520E-1,-2.059076279E-1,9.632167816E0
2.581733926E0,-4.620950520E-1,-1.556278616E-1,9.627379417E0
2.583734959E0,-4.812492430E-1,-1.149251908E-1,9.644139290E0
2.585736292E0,-4.956148863E-1,-8.379961550E-2,9.613013268E0
2.587737658E0,-5.027977228E-1,-2.873129770E-2,9.591464996E0
2.589738991E0,-5.051919818E-1,-1.197137404E-2,9.586676598E0
2.591740324E0,-5.171633363E-1,4.549122229E-2,9.572310448E0
2.593741690E0,-5.219519138E-1,7.661679387E-2,9.581888199E0
2.595743023E0,-5.147690773E-1,8.379961550E-2,9.562733650E0
2.597744356E0,-5.195576549E-1,1.556278616E-1,9.567522049E0
2.599745722E0,-5.171633363E-1,1.699935049E-1,9.569916725E0
2.601747055E0,-4.932205975E-1,1.819648892E-1,9.601041794E0
2.603748155E0,-4.884320498E-1,2.178790122E-1,9.644139290E0
2.605749521E0,-4.932205975E-1,2.322446555E-1,9.644139290E0
2.607750854E0,-4.740664065E-1,2.705530524E-1,9.656110764E0
2.609752187E0,-4.884320498E-1,2.825244367E-1,9.687235832E0
2.611753553E0,-4.740664065E-1,2.992843390E-1,9.689630508E0
2.613754853E0,-4.597007632E-1,3.112557232E-1,9.713572502E0
2.615756186E0,-4.429408312E-1,3.399870098E-1,9.737515450E0
2.617757552E0,-4.549122155E-1,3.375927508E-1,9.751881599E0
2.619758885E0,-4.549122155E-1,3.328042030E-1,9.759063721E0
2.621760518E0,-4.525179267E-1,3.328042030E-1,9.773429871E0
2.623761884E0,-4.668835998E-1,3.423812985E-1,9.792584419E0
2.625763217E0,-4.860377908E-1,3.328042030E-1,9.830892563E0
2.627764550E0,-5.027977228E-1,3.280156553E-1,9.864412308E0
2.629765916E0,-5.099805593E-1,3.208328187E-1,9.883566856E0
2.631767249E0,-5.650488734E-1,3.160442710E-1,9.926663399E0
2.633768582E0,-5.818088055E-1,3.112557232E-1,9.936240196E0
2.635769915E0,-6.201171875E-1,2.873129845E-1,9.993702888E0
2.637771515E0,-6.751855016E-1,2.992843390E-1,1.002004051E1
2.639772848E0,-6.967339516E-1,2.825244367E-1,1.003440571E1
2.641774181E0,-7.374366522E-1,2.561874092E-1,1.007032013E1
2.643775814E0,-7.685621977E-1,2.537931204E-1,1.010623360E1
2.645776814E0,-7.853221297E-1,2.346389294E-1,1.010623360E1
2.647778147E0,-8.451790214E-1,2.202732861E-1,1.014454269E1
2.649779480E0,-8.571503758E-1,2.418217510E-1,1.016130257E1
2.651780846E0,-8.930644989E-1,2.609759569E-1,1.016848469E1
2.653782179E0,-9.313728809E-1,2.705530524E-1,1.019242764E1
2.655783512E0,-9.505270720E-1,2.657645047E-1,1.021158218E1
2.657784878E0,-9.696813226E-1,2.777358890E-1,1.019482231E1
2.659786211E0,-9.888355136E-1,3.064671755E-1,1.018285084E1
2.661787544E0,-9.768640995E-1,3.256213665E-1,1.016848469E1
2.663788910E0,-9.720755816E-1,3.088614643E-1,1.010144520E1
2.665790243E0,-9.577099085E-1,3.088614643E-1,1.008468533E1
2.667791576E0,-9.409499764E-1,3.136500120E-1,1.008229160E1
2.669792942E0,-9.074301720E-1,2.968900800E-1,1.004877090E1
2.671794275E0,-8.715160489E-1,3.040728867E-1,1.003440571E1
2.673795641E0,-8.547561169E-1,3.064671755E-1,1.000567436E1
2.675798141E0,-8.308133483E-1,2.944957912E-1,9.986519814E0
2.677799474E0,-7.972934842E-1,2.777358890E-1,9.972154617E0
2.679800807E0,-7.661679387E-1,2.585816681E-1,9.974549294E0
2.681802173E0,-7.326480746E-1,2.513988614E-1,9.945817947E0
2.683803806E0,-7.110996246E-1,2.394274771E-1,9.926663399E0
2.685805139E0,-6.488484740E-1,2.274561077E-1,9.873989105E0
2.687806505E0,-6.225114465E-1,2.178790122E-1,9.828497887E0
2.689807838E0,-5.937801600E-1,2.035133541E-1,9.799766541E0
2.691809171E0,-5.482889414E-1,1.843591630E-1,9.756669998E0
2.693810537E0,-4.860377908E-1,1.747820675E-1,9.725543976E0
2.695811870E0,-4.357580245E-1,1.843591630E-1,9.689630508E0
2.697812936E0,-4.070267081E-1,1.699935049E-1,9.682447433E0
2.699814302E0,-4.046324492E-1,1.819648892E-1,9.670475960E0
2.701815635E0,-3.519583941E-1,1.675992310E-1,9.617801666E0
2.703816968E0,-2.992843390E-1,1.699935049E-1,9.598648071E0
2.705818668E0,-2.801301479E-1,1.723877788E-1,9.567522049E0
2.707820001E0,-2.418217510E-1,1.819648892E-1,9.545973778E0
2.709821334E0,-2.106961906E-1,1.795706153E-1,9.505270958E0
2.711822667E0,-2.035133541E-1,1.819648892E-1,9.486116409E0
2.713824000E0,-1.652049571E-1,1.795706153E-1,9.452596664E0
2.715825366E0,-1.316851079E-1,1.771763414E-1,9.416683197E0
2.717826699E0,-1.149251908E-1,1.939362586E-1,9.380768776E0
2.719828032E0,-1.053480953E-1,2.059076279E-1,9.361614227E0
2.721829398E0,-1.173194647E-1,2.083019018E-1,9.332882881E0
2.723830731E0,-1.221080124E-1,2.274561077E-1,9.325700760E0
2.725832064E0,-1.029538140E-1,2.274561077E-1,9.335277557E0
2.727833430E0,-1.005595401E-1,2.250618339E-1,9.340065956E0
2.729834763E0,-8.140534163E-2,2.202732861E-1,9.328094482E0
2.731836096E0,-8.858817071E-2,1.987248063E-1,9.335277557E0
2.733837462E0,-8.379961550E-2,2.059076279E-1,9.354432106E0
2.735837662E0,-8.619388938E-2,1.915419847E-1,9.359220505E0
2.737838995E0,-7.901106775E-2,1.699935049E-1,9.371191978E0
2.739840361E0,-8.140534163E-2,1.532335877E-1,9.385557175E0
2.741841694E0,-8.140534163E-2,1.388679445E-1,9.402317047E0
2.743842727E0,-8.619388938E-2,1.077423692E-1,9.423865318E0
2.745844093E0,-8.140534163E-2,9.098244458E-2,9.433443069E0
2.747845426E0,-9.337671846E-2,6.464541703E-2,9.452596664E0
2.749846759E0,-1.005595401E-1,5.267404765E-2,9.452596664E0
2.751848125E0,-9.577099234E-2,6.225114316E-2,9.466962814E0
2.753849458E0,-9.098244458E-2,4.549122229E-2,9.466962814E0
2.755850791E0,-1.101366431E-1,-4.788549617E-3,9.457385063E0
2.757854624E0,-1.029538140E-1,-2.394274808E-3,9.464568138E0
2.759855624E0,-1.101366431E-1,-3.351984918E-2,9.452596664E0
2.761856990E0,-1.125309169E-1,-4.070267081E-2,9.466962814E0
2.766921916E0,-1.101366431E-1,-7.661679387E-2,9.483722687E0
2.768923249E0,-1.221080124E-1,-1.125309169E-1,9.500482559E0
2.770924582E0,-1.340793967E-1,-1.149251908E-1,9.500482559E0
2.772925948E0,-1.412622184E-1,-1.628106833E-1,9.519637108E0
2.774927281E0,-1.580221355E-1,-1.604164094E-1,9.545973778E0
2.776928614E0,-1.747820675E-1,-1.771763414E-1,9.577098846E0
2.778929947E0,-1.747820675E-1,-2.011190802E-1,9.598648071E0
2.780931280E0,-1.819648892E-1,-2.178790122E-1,9.605830193E0
2.782932613E0,-2.059076279E-1,-2.130904645E-1,9.601041794E0
2.784933946E0,-2.274561077E-1,-2.346389294E-1,9.593858719E0
2.786935279E0,-2.466102988E-1,-2.394274771E-1,9.610619545E0
2.788936612E0,-2.633702159E-1,-2.250618339E-1,9.627379417E0
2.790938412E0,-3.232271075E-1,-2.394274771E-1,9.646533012E0
2.792939745E0,-3.375927508E-1,-2.418217510E-1,9.675264359E0
2.794941111E0,-3.687183261E-1,-2.513988614E-1,9.692024231E0
2.796942444E0,-4.070267081E-1,-2.394274771E-1,9.706390381E0
2.798943777E0,-4.285751879E-1,-2.442160249E-1,9.735121727E0
2.800945143E0,-4.620950520E-1,-2.681587934E-1,9.756669998E0
2.802946476E0,-4.788549542E-1,-2.537931204E-1,9.759063721E0
2.804947809E0,-5.051919818E-1,-2.298503816E-1,9.780612946E0
2.806949175E0,-5.267404318E-1,-2.106961906E-1,9.794978142E0
2.808950508E0,-5.458946824E-1,-2.178790122E-1,9.811738014E0
2.810951841E0,-5.818088055E-1,-2.298503816E-1,9.838075638E0
2.812953207E0,-5.985686779E-1,-1.939362586E-1,9.871595383E0
2.814954540E0,-6.081457734E-1,-1.915419847E-1,9.866806030E0
2.816955873E0,-6.416656375E-1,-1.675992310E-1,9.900326729E0
2.818957239E0,-6.656084061E-1,-1.532335877E-1,9.900326729E0
2.822957771E0,-6.991282701E-1,-1.652049571E-1,9.914691925E0
2.824959104E0,-7.015225291E-1,-1.532335877E-1,9.936240196E0
2.826960770E0,-7.087053657E-1,-1.436564922E-1,9.929058075E0
2.828962070E0,-7.326480746E-1,-1.245022863E-1,9.917086601E0
2.830963370E0,-7.494080067E-1,-1.316851079E-1,9.897932053E0
2.832964703E0,-7.757450342E-1,-1.556278616E-1,9.897932053E0
2.834966036E0,-8.140534163E-1,-1.460507661E-1,9.919480324E0
2.836967402E0,-8.236305118E-1,-1.532335877E-1,9.919480324E0
2.838968735E0,-8.475732803E-1,-1.484450400E-1,9.924268723E0
2.840970068E0,-8.858816624E-1,-1.412622184E-1,9.926663399E0
2.842971434E0,-9.146129489E-1,-1.388679445E-1,9.933846474E0
2.844972767E0,-9.529213905E-1,-1.484450400E-1,9.955394745E0
2.846974100E0,-9.744698405E-1,-1.580221355E-1,9.948211670E0
2.848975466E0,-1.039115310E0,-1.699935049E-1,9.962577820E0
2.850976332E0,-1.091789365E0,-1.723877788E-1,9.950606346E0
2.852977665E0,-1.108549237E0,-1.699935049E-1,9.953000069E0
2.854978998E0,-1.161223292E0,-1.532335877E-1,9.974549294E0
2.856980331E0,-1.211503029E0,-1.652049571E-1,9.984126091E0
2.858981664E0,-1.233051538E0,-1.843591630E-1,9.976943016E0
2.860982997E0,-1.271359921E0,-1.723877788E-1,9.976943016E0
2.862984330E0,-1.309668303E0,-1.843591630E-1,9.976943016E0
2.864988696E0,-1.324033976E0,-1.795706153E-1,9.974549294E0
2.866990029E0,-1.333611012E0,-1.795706153E-1,9.981731415E0
2.868991362E0,-1.357553840E0,-1.939362586E-1,9.991309166E0
2.870992728E0,-1.362342358E0,-1.963305324E-1,9.976943016E0
2.872994061E0,-1.393467903E0,-1.939362586E-1,9.967366219E0
2.874995394E0,-1.410227895E0,-1.795706153E-1,9.964971542E0
2.876996760E0,-1.436564922E0,-1.675992310E-1,9.936240196E0
2.878998093E0,-1.441353440E0,-1.460507661E-1,9.912297249E0
2.880999426E0,-1.441353440E0,-1.484450400E-1,9.912297249E0
2.883000792E0,-1.441353440E0,-1.388679445E-1,9.864412308E0
2.885002125E0,-1.441353440E0,-1.460507661E-1,9.866806030E0
2.887003458E0,-1.434170604E0,-1.364736706E-1,9.850046158E0
2.889004858E0,-1.415016413E0,-1.484450400E-1,9.830892563E0
2.891006258E0,-1.407833576E0,-1.604164094E-1,9.818921089E0
2.893007591E0,-1.407833576E0,-1.699935049E-1,9.809344292E0
2.895008957E0,-1.398256540E0,-1.460507661E-1,9.775823593E0
2.897010290E0,-1.386285067E0,-1.340793967E-1,9.759063721E0
2.899011623E0,-1.357553840E0,-1.652049571E-1,9.754275322E0
2.901012989E0,-1.333611012E0,-1.580221355E-1,9.715967178E0
2.903014322E0,-1.302485466E0,-1.556278616E-1,9.694418907E0
2.905015655E0,-1.235445857E0,-1.532335877E-1,9.689630508E0
2.907017021E0,-1.211503029E0,-1.604164094E-1,9.653716087E0
2.909018354E0,-1.175588965E0,-1.675992310E-1,9.634561539E0
2.911019687E0,-1.139674783E0,-1.532335877E-1,9.615407944E0
2.913021053E0,-1.082212210E0,-1.628106833E-1,9.579493523E0
2.915022386E0,-1.060663700E0,-1.771763414E-1,9.569916725E0
2.917025886E0,-1.000806928E0,-1.699935049E-1,9.553156853E0
2.919027252E0,-9.337671995E-1,-1.843591630E-1,9.529213905E0
2.921028585E0,-9.050358534E-1,-1.891477108E-1,9.507665634E0
2.923029918E0,-8.308133483E-1,-1.987248063E-1,9.495694160E0
2.927029584E0,-7.422251701E-1,-2.346389294E-1,9.500482559E0
2.929030917E0,-6.703969240E-1,-2.418217510E-1,9.478934288E0
2.931032250E0,-6.464542150E-1,-2.394274771E-1,9.481328011E0
2.933033583E0,-5.913859010E-1,-2.585816681E-1,9.462174416E0
2.935034949E0,-5.339232683E-1,-2.681587934E-1,9.466962814E0
2.937036282E0,-4.908263385E-1,-2.681587934E-1,9.462174416E0
2.939037615E0,-4.213923812E-1,-2.921015322E-1,9.454991341E0
2.941039681E0,-3.735068738E-1,-3.160442710E-1,9.438231468E0
2.943041014E0,-3.447755575E-1,-3.304099143E-1,9.431048393E0
2.945042347E0,-2.992843390E-1,-3.351984620E-1,9.402317047E0
2.947043713E0,-2.657645047E-1,-3.447755575E-1,9.392740250E0
2.949045046E0,-2.083019018E-1,-3.351984620E-1,9.395133972E0
2.951046379E0,-1.436564922E-1,-3.902668059E-1,9.371191978E0
2.953047412E0,-1.316851079E-1,-3.854782581E-1,9.371191978E0
2.955048745E0,-7.422251999E-2,-4.094209969E-1,9.359220505E0
2.957050078E0,-2.394274808E-2,-4.357580245E-1,9.364008904E0
2.959051444E0,7.182824425E-3,-4.429408312E-1,9.397528648E0
2.961052777E0,5.506832153E-2,-4.285751879E-1,9.431048393E0
2.963054110E0,1.125309169E-1,-4.357580245E-1,9.454991341E0
2.965055476E0,1.340793967E-1,-4.429408312E-1,9.481328011E0
2.967056476E0,1.843591630E-1,-4.285751879E-1,9.495694160E0
2.969057809E0,2.202732861E-1,-4.357580245E-1,9.505270958E0
2.971059175E0,2.537931204E-1,-4.381522834E-1,9.507665634E0
2.973060508E0,3.016786277E-1,-4.213923812E-1,9.565128326E0
2.975062174E0,3.184385598E-1,-4.237866402E-1,9.569916725E0
2.979063340E0,3.830839694E-1,-3.711125851E-1,9.608224869E0
2.981064673E0,4.046324492E-1,-3.663240373E-1,9.598648071E0
2.983066039E0,4.501236677E-1,-3.639297783E-1,9.605830193E0
2.985067372E0,4.884320498E-1,-3.543526828E-1,9.589070320E0
2.987068705E0,5.027977228E-1,-3.519583941E-1,9.593858719E0
2.989070071E0,5.027977228E-1,-3.208328187E-1,9.610619545E0
2.991071404E0,5.219519138E-1,-3.112557232E-1,9.608224869E0
2.993072737E0,5.171633363E-1,-2.944957912E-1,9.615407944E0
2.995074070E0,5.506832004E-1,-2.849186957E-1,9.634561539E0
2.997075470E0,5.482889414E-1,-2.801301479E-1,9.634561539E0
2.999076803E0,5.554717779E-1,-2.729473412E-1,9.663292885E0
3.001077436E0,5.506832004E-1,-2.825244367E-1,9.682447433E0
3.003078769E0,5.602602959E-1,-2.705530524E-1,9.701601982E0
3.005080135E0,5.435003638E-1,-2.609759569E-1,9.713572502E0
3.007081468E0,5.339232683E-1,-2.873129845E-1,9.742303848E0
3.009082801E0,5.315290093E-1,-2.944957912E-1,9.756669998E0
3.011083867E0,5.099805593E-1,-3.016786277E-1,9.763853073E0
3.013085533E0,4.836435020E-1,-3.112557232E-1,9.771035194E0
3.015086866E0,4.573064744E-1,-3.232271075E-1,9.773429871E0
3.017088232E0,4.094209969E-1,-3.351984620E-1,9.775823593E0
3.019089565E0,3.950553536E-1,-3.423812985E-1,9.780612946E0
3.021090898E0,3.639297783E-1,-3.687183261E-1,9.790189743E0
3.023092264E0,3.136500120E-1,-4.142095447E-1,9.804554939E0
3.025093597E0,2.897072434E-1,-4.309694767E-1,9.806949615E0
3.027095263E0,2.202732861E-1,-4.573064744E-1,9.816526413E0
3.029096629E0,1.268965602E-1,-4.980091453E-1,9.828497887E0
3.031097962E0,9.816526622E-2,-5.004034638E-1,9.818921089E0
3.033099295E0,4.309694469E-2,-5.195576549E-1,9.830892563E0
3.035100328E0,-5.027977005E-2,-5.267404318E-1,9.828497887E0
3.037101661E0,-8.379961550E-2,-5.411061049E-1,9.838075638E0
3.039102661E0,-1.580221355E-1,-5.554717779E-1,9.833286285E0
3.041104027E0,-2.490045726E-1,-5.650488734E-1,9.826104164E0
3.043105360E0,-2.681587934E-1,-5.913859010E-1,9.826104164E0
3.045106693E0,-3.351984620E-1,-5.961744189E-1,9.785401344E0
3.047108059E0,-3.878725171E-1,-5.961744189E-1,9.773429871E0
3.049109392E0,-4.644893110E-1,-6.153286099E-1,9.751881599E0
3.051110725E0,-5.626545548E-1,-6.536370516E-1,9.739910126E0
3.053112091E0,-5.961744189E-1,-6.608198285E-1,9.723150253E0
3.055113424E0,-6.823683381E-1,-6.608198285E-1,9.687235832E0
3.057114690E0,-7.709565163E-1,-6.799740195E-1,9.668081284E0
3.059116056E0,-8.475732803E-1,-6.967339516E-1,9.653716087E0
3.061117389E0,-8.786988258E-1,-7.278595567E-1,9.665687561E0
3.063118722E0,-9.529213905E-1,-7.589851022E-1,9.675264359E0
3.065120055E0,-1.000806928E0,-7.685621977E-1,9.682447433E0
3.067121388E0,-1.060663700E0,-7.757450342E-1,9.723150253E0
3.069122721E0,-1.098972082E0,-7.901107073E-1,9.711178780E0
3.071125054E0,-1.170800328E0,-8.116591573E-1,9.747093201E0
3.073126387E0,-1.221080184E0,-8.020820618E-1,9.756669998E0
3.075127753E0,-1.276148438E0,-7.925049663E-1,9.759063721E0
3.077129086E0,-1.359948039E0,-7.494080067E-1,9.787795067E0
3.079130419E0,-1.429382086E0,-7.326480746E-1,9.814132690E0
3.081131785E0,-1.472478986E0,-7.302538157E-1,9.833286285E0
3.083133118E0,-1.544307232E0,-6.703969240E-1,9.847652435E0
3.085134451E0,-1.630501151E0,-6.105400920E-1,9.852440834E0
3.087135817E0,-1.678386688E0,-5.626545548E-1,9.847652435E0
3.089137150E0,-1.771763325E0,-4.884320498E-1,9.816526413E0
3.091138483E0,-1.826831698E0,-4.237866402E-1,9.804554939E0
3.093139849E0,-1.867534399E0,-3.735068738E-1,9.759063721E0
3.095141182E0,-1.920208454E0,-2.992843390E-1,9.720755577E0
3.097142515E0,-1.932179809E0,-2.513988614E-1,9.680052757E0
3.099143581E0,-1.982459545E0,-1.675992310E-1,9.615407944E0
3.101145047E0,-1.855562925E0,-1.652049571E-1,9.478934288E0
3.103146380E0,-1.762186289E0,-2.106961906E-1,9.378374100E0
3.105147746E0,-1.826831698E0,-5.985686928E-2,9.205986977E0
3.107149079E0,-1.929785490E0,4.549122229E-2,9.138946533E0
3.109151112E0,-1.956122518E0,6.225114316E-2,9.134158134E0
3.111152478E0,-1.977671027E0,1.364736706E-1,9.153312683E0
3.113153811E0,-2.030344963E0,1.915419847E-1,9.184437752E0
3.115155144E0,-2.056682110E0,2.059076279E-1,9.174860954E0
3.117156510E0,-2.111750364E0,2.466102988E-1,9.184437752E0
3.119157843E0,-2.150058746E0,2.585816681E-1,9.196409225E0
3.121159176E0,-2.157241583E0,2.705530524E-1,9.215563774E0
3.123160542E0,-2.214704275E0,3.064671755E-1,9.213169098E0
3.125161875E0,-2.219492674E0,3.208328187E-1,9.222746849E0
3.127163041E0,-2.231464148E0,3.232271075E-1,9.292180061E0
3.129164407E0,-2.233858347E0,3.471698463E-1,9.359220505E0
3.131165040E0,-2.229069948E0,3.639297783E-1,9.342460632E0
3.133166373E0,-2.188367128E0,3.830839694E-1,9.296969414E0
3.135171139E0,-2.140481710E0,3.998439014E-1,9.210775375E0
3.137172472E0,-2.092596292E0,3.950553536E-1,9.174860954E0
3.139173805E0,-2.004008055E0,3.998439014E-1,9.071907043E0
3.141175138E0,-1.936968327E0,3.998439014E-1,9.050358772E0
3.143176471E0,-1.795706153E0,3.711125851E-1,8.968953133E0
3.145177837E0,-1.656838179E0,3.519583941E-1,8.870788574E0
3.147179170E0,-1.568249941E0,3.375927508E-1,8.832479477E0
3.149180503E0,-1.326428294E0,2.921015322E-1,8.751074791E0
3.151181869E0,-1.058269501E0,2.226675600E-1,8.662486076E0
3.153183202E0,-8.978530765E-1,1.987248063E-1,8.626572609E0
3.155184535E0,-5.818088055E-1,1.412622184E-1,8.557138443E0
3.157185901E0,-2.346389294E-1,9.098244458E-2,8.499675751E0
3.159187234E0,-7.182824612E-2,4.549122229E-2,8.485309601E0
3.161188434E0,2.968900800E-1,1.675992459E-2,8.435029984E0
3.163189800E0,6.703969240E-1,2.394274808E-3,8.413481712E0
3.165191133E0,8.547561169E-1,-2.154847234E-2,8.439818382E0
3.167192466E0,1.209108829E0,-2.633702382E-2,8.482915878E0
3.169193066E0,1.379102230E0,-4.070267081E-2,8.511647224E0
3.171194399E0,1.719089270E0,-1.915419847E-2,8.569109917E0
3.173197732E0,1.996825218E0,4.788549617E-3,8.664880753E0
3.175199098E0,2.150058746E0,2.633702382E-2,8.715160370E0
3.177202664E0,2.375120640E0,4.549122229E-2,8.794171333E0
3.179204697E0,2.595393896E0,8.140534163E-2,8.873182297E0
3.181206063E0,2.662433624E0,1.197137386E-1,8.913885117E0
3.183207396E0,2.808484316E0,1.747820675E-1,9.019232750E0
3.185208729E0,2.873129845E0,2.346389294E-1,9.129369736E0
3.187210262E0,2.894678354E0,2.777358890E-1,9.179649353E0
3.189212262E0,2.882706881E0,3.351984620E-1,9.292180061E0
3.191213595E0,2.894678354E0,3.615354896E-1,9.344854355E0
3.193214961E0,2.849187136E0,4.477293789E-1,9.447808266E0
3.197214194E0,2.753416061E0,5.291347504E-1,9.648927689E0
3.199215560E0,2.660039425E0,6.105400920E-1,9.751881599E0
3.201216893E0,2.537931204E0,6.727912426E-1,9.830892563E0
3.203218226E0,2.487651587E0,7.039167881E-1,9.876383781E0
3.205219559E0,2.322446585E0,7.925049663E-1,9.979337692E0
3.207220892E0,2.145270348E0,8.403904438E-1,1.002004051E1
3.209222225E0,2.063864946E0,8.715160489E-1,1.004158878E1
3.211223558E0,1.850774407E0,9.146129489E-1,1.007510853E1
3.213224891E0,1.752609134E0,9.864411950E-1,1.008947372E1
3.215226257E0,1.553884387E0,9.864411950E-1,1.009905148E1
3.217227590E0,1.369525194E0,1.015172482E0,1.008229160E1
3.219228923E0,1.297696948E0,1.029538155E0,1.002722263E1
3.221230389E0,1.122914910E0,9.936240315E-1,9.976943016E0
3.223231722E0,9.840469360E-1,9.672870040E-1,9.912297249E0
3.225233055E0,9.050358534E-1,9.601042271E-1,9.866806030E0
3.227234421E0,7.733507752E-1,9.289786220E-1,9.787795067E0
3.229235821E0,6.488484740E-1,8.643332124E-1,9.737515450E0
3.231237154E0,5.842030644E-1,8.499675393E-1,9.713572502E0
3.235238553E0,3.208328187E-1,6.991282701E-1,9.636956215E0
3.239238319E0,8.140534163E-2,5.985686779E-1,9.651321411E0
3.241239652E0,3.351984918E-2,5.602602959E-1,9.684841156E0
3.243240985E0,-1.364736706E-1,4.788549542E-1,9.754275322E0
3.245242351E0,-3.328042030E-1,3.998439014E-1,9.857229233E0
3.247243684E0,-4.070267081E-1,3.711125851E-1,9.914691925E0
3.249244350E0,-5.889915824E-1,3.232271075E-1,9.998491287E0
3.251245716E0,-7.972934842E-1,2.921015322E-1,1.009186840E1
3.253247049E0,-8.978530765E-1,2.681587934E-1,1.015890789E1
3.255248382E0,-1.082212210E0,2.537931204E-1,1.024270725E1
3.257249748E0,-1.247417212E0,1.915419847E-1,1.034326744E1
3.259251081E0,-1.326428294E0,1.795706153E-1,1.041270161E1
3.261252414E0,-1.486844659E0,1.508393139E-1,1.052523232E1
3.263253780E0,-1.589798450E0,1.412622184E-1,1.055635738E1
3.265255113E0,-1.776551962E0,1.436564922E-1,1.067367744E1
3.267256446E0,-1.941756845E0,1.556278616E-1,1.077184200E1
3.269257812E0,-2.018373728E0,1.652049571E-1,1.082930470E1
3.271259145E0,-2.152452946E0,1.699935049E-1,1.090831566E1
3.273260478E0,-2.272166729E0,1.939362586E-1,1.096338463E1
3.275261811E0,-2.317657948E0,1.843591630E-1,1.099450970E1
3.277263144E0,-2.394274712E0,2.059076279E-1,1.105197239E1
3.279264477E0,-2.478074312E0,2.513988614E-1,1.111901188E1
3.281265710E0,-2.482862949E0,2.657645047E-1,1.115013790E1
3.283267043E0,-2.513988495E0,2.897072434E-1,1.121238899E1
3.285268409E0,-2.499622822E0,2.849186957E-1,1.121957207E1
3.287269742E0,-2.504411459E0,3.040728867E-1,1.127703476E1
3.289271075E0,-2.439765930E0,3.208328187E-1,1.132731438E1
3.291272441E0,-2.387091875E0,3.304099143E-1,1.134407425E1
3.293273774E0,-2.308080912E0,3.328042030E-1,1.134886265E1
3.295274407E0,-2.185972929E0,3.256213665E-1,1.137280560E1
3.297275773E0,-2.111750364E0,3.328042030E-1,1.135604572E1
3.299277106E0,-1.977671027E0,4.046324492E-1,1.131294823E1
3.301278439E0,-1.922602654E0,4.333637357E-1,1.128421688E1
3.303279805E0,-1.857957244E0,4.477293789E-1,1.125788021E1
3.305281138E0,-1.716695070E0,4.980091453E-1,1.120041752E1
3.307282404E0,-1.577827096E0,5.315290093E-1,1.114056110E1
3.309283770E0,-1.503604531E0,5.506832004E-1,1.109506989E1
3.311285103E0,-1.403045058E0,5.937801600E-1,1.106154919E1
3.313286436E0,-1.343188167E0,5.985686779E-1,1.102084732E1
3.315287802E0,-1.213897347E0,5.985686779E-1,1.094183540E1
3.317289135E0,-1.043903828E0,5.746259689E-1,1.087479591E1
3.319290468E0,-9.864411950E-1,5.818088055E-1,1.085085297E1
3.321291834E0,-8.427847624E-1,5.889915824E-1,1.079578495E1
3.323293167E0,-6.703969240E-1,6.105400920E-1,1.073114014E1
3.325294500E0,-5.698373914E-1,6.177229285E-1,1.070480251E1
3.327295866E0,-3.878725171E-1,6.225114465E-1,1.063776302E1
3.329297199E0,-2.202732861E-1,6.416656375E-1,1.061860847E1
3.331298532E0,-1.412622184E-1,6.320885420E-1,1.062818623E1
3.333299898E0,3.112557158E-2,6.392713785E-1,1.061142635E1
3.335301231E0,1.005595401E-1,6.488484740E-1,1.061382008E1
3.337302564E0,2.561874092E-1,6.440598965E-1,1.061860847E1
3.339303930E0,4.166038036E-1,6.201171875E-1,1.063057995E1
3.341305263E0,4.836435020E-1,6.129343510E-1,1.063057995E1
3.343306596E0,6.344828010E-1,6.081457734E-1,1.064733982E1
3.345307929E0,8.308133483E-1,5.985686779E-1,1.064973450E1
3.347309262E0,8.858816624E-1,5.818088055E-1,1.065212822E1
3.349310595E0,1.015172482E0,5.411061049E-1,1.064494610E1
3.351317761E0,1.146857619E0,5.099805593E-1,1.067607117E1
3.353319094E0,1.230657220E0,5.004034638E-1,1.069043732E1
3.355320460E0,1.424593568E0,4.309694767E-1,1.068564892E1
3.357321793E0,1.616135478E0,4.046324492E-1,1.069522572E1
3.359324859E0,1.755003452E0,3.950553536E-1,1.070480251E1
3.361326225E0,1.807677507E0,3.495641351E-1,1.073832226E1
3.363327558E0,1.874717116E0,3.471698463E-1,1.071677399E1
3.365328891E0,2.004008055E0,2.897072434E-1,1.075029373E1
3.367330324E0,2.126116037E0,2.585816681E-1,1.075508213E1
3.369331657E0,2.188367128E0,2.466102988E-1,1.075029373E1
3.371333690E0,2.317657948E0,1.532335877E-1,1.070480251E1
3.373335056E0,2.439765930E0,7.422251999E-2,1.066409969E1
3.375336389E0,2.478074312E0,4.549122229E-2,1.065212822E1
3.377337722E0,2.521171331E0,-2.633702382E-2,1.060663700E1
3.379339655E0,2.604970932E0,-8.140534163E-2,1.053720379E1
3.381340988E0,2.631308079E0,-1.005595401E-1,1.051086617E1
3.383342321E0,2.672010660E0,-1.508393139E-1,1.044382668E1
3.385343687E0,2.707924843E0,-1.484450400E-1,1.040791225E1
3.387345020E0,2.748627424E0,-1.843591630E-1,1.030256462E1
3.389346353E0,2.810878515E0,-2.394274771E-1,1.021397591E1
3.391347719E0,2.825244188E0,-2.633702159E-1,1.018524456E1
3.393349052E0,2.880312681E0,-3.088614643E-1,1.010623360E1
3.395350385E0,2.978477955E0,-3.639297783E-1,1.006553173E1
3.397352085E0,3.002420664E0,-3.782954216E-1,1.004637718E1
3.399354451E0,3.026363373E0,-4.046324492E-1,1.002243423E1
3.401355784E0,3.069460392E0,-4.381522834E-1,1.002482891E1
3.403357150E0,3.100585938E0,-4.644893110E-1,1.001525116E1
3.405358483E0,3.117345810E0,-4.932205975E-1,1.003201103E1
3.407359816E0,3.100585938E0,-5.099805593E-1,1.002961731E1
3.409361182E0,3.100585938E0,-5.219519138E-1,1.004637718E1
3.413358015E0,3.143682718E0,-5.458946824E-1,1.005595398E1
3.415359348E0,3.148471355E0,-5.506832004E-1,1.000327969E1
3.417360681E0,3.095797300E0,-5.722316504E-1,9.957788467E0
3.421361614E0,2.978477955E0,-5.578660369E-1,9.902720451E0
3.423362947E0,2.887495518E0,-5.411061049E-1,9.828497887E0
3.425364313E0,2.820455790E0,-5.243461728E-1,9.816526413E0
3.427365646E0,2.729473352E0,-4.644893110E-1,9.785401344E0
3.429366979E0,2.688770533E0,-4.213923812E-1,9.775823593E0
3.431367645E0,2.660039425E0,-4.022381604E-1,9.771035194E0
3.433368978E0,2.638490915E0,-3.351984620E-1,9.771035194E0
3.435370311E0,2.638490915E0,-3.064671755E-1,9.761458397E0
3.437371677E0,2.621730804E0,-2.657645047E-1,9.751881599E0
3.439372443E0,2.571451187E0,-2.154847383E-1,9.735121727E0
3.441373776E0,2.528354168E0,-2.035133541E-1,9.739910126E0
3.443375142E0,2.533142805E0,-1.460507661E-1,9.696812630E0
3.445376475E0,2.521171331E0,-1.029538140E-1,9.636956215E0
3.447377808E0,2.525959969E0,-6.703969836E-2,9.593858719E0
3.449379174E0,2.581028223E0,9.577099234E-3,9.524425507E0
3.451380507E0,2.650462151E0,5.746259540E-2,9.433443069E0
3.453382540E0,2.674404860E0,8.858817071E-2,9.390345573E0
3.455383906E0,2.767781734E0,1.532335877E-1,9.320911407E0
3.457384672E0,2.808484316E0,1.891477108E-1,9.282603264E0
3.459391505E0,2.901860952E0,2.178790122E-1,9.268238068E0
3.461392871E0,2.971295118E0,2.561874092E-1,9.251478195E0
3.463394204E0,3.004814863E0,2.897072434E-1,9.268238068E0
3.465395537E0,3.016786337E0,3.423812985E-1,9.234718323E0
3.467396903E0,3.023969173E0,3.759011328E-1,9.232323647E0
3.469398236E0,3.023969173E0,3.567469418E-1,9.249083519E0
3.471406369E0,3.023969173E0,3.687183261E-1,9.232323647E0
3.473407735E0,2.997632027E0,3.567469418E-1,9.251478195E0
3.475409068E0,3.002420664E0,3.495641351E-1,9.275420189E0
3.477410401E0,2.947352171E0,2.801301479E-1,9.311334610E0
3.479411767E0,2.892283916E0,2.490045726E-1,9.366402626E0
3.481413100E0,2.849187136E0,2.130904645E-1,9.380768776E0
3.483414433E0,2.765387297E0,1.723877788E-1,9.409500122E0
3.485415766E0,2.722290516E0,1.412622184E-1,9.423865318E0
3.487417699E0,2.614548206E0,7.661679387E-2,9.464568138E0
3.489419032E0,2.521171331E0,4.070267081E-2,9.502876282E0
3.491420365E0,2.492439985E0,-2.394274808E-3,9.502876282E0
3.493421698E0,2.425400496E0,-6.943397224E-2,9.505270958E0
3.495423031E0,2.336812258E0,-1.388679445E-1,9.493299484E0
3.497424364E0,2.322446585E0,-1.628106833E-1,9.488511086E0
3.499425697E0,2.267378330E0,-2.442160249E-1,9.462174416E0
3.501429630E0,2.231464148E0,-3.328042030E-1,9.450202942E0
3.503430963E0,2.214704275E0,-3.591412306E-1,9.462174416E0
3.505432296E0,2.183578730E0,-4.237866402E-1,9.471751213E0
3.507433662E0,2.178790092E0,-4.620950520E-1,9.464568138E0
3.509434995E0,2.169213057E0,-4.812492430E-1,9.464568138E0
3.511436328E0,2.197944164E0,-5.458946824E-1,9.457385063E0
3.513436994E0,2.202732801E0,-5.650488734E-1,9.464568138E0
3.515438327E0,2.262589693E0,-6.416656375E-1,9.452596664E0
3.517439893E0,2.310475111E0,-7.039167881E-1,9.421471596E0
3.521436059E0,2.394274712E0,-7.996878028E-1,9.435836792E0
3.523438092E0,2.525959969E0,-8.786988258E-1,9.419076920E0
3.525439458E0,2.576239586E0,-9.050358534E-1,9.385557175E0
3.527440791E0,2.669616461E0,-9.720755816E-1,9.332882881E0
3.529442124E0,2.748627424E0,-1.024749637E0,9.316123009E0
3.533438023E0,2.889889717E0,-1.108549237E0,9.186832428E0
3.535439356E0,2.923409462E0,-1.113337755E0,9.172467232E0
3.537440722E0,3.009603500E0,-1.158828974E0,9.110215187E0
3.539442055E0,3.052700281E0,-1.177983165E0,9.057541847E0
3.541443388E0,3.100585938E0,-1.199531674E0,9.040781975E0
3.543444754E0,3.184385538E0,-1.223474383E0,8.971347809E0
3.545446087E0,3.246636629E0,-1.254600048E0,8.916279793E0
3.547446820E0,3.261002302E0,-1.264177084E0,8.897125244E0
3.549448186E0,3.249030828E0,-1.252205729E0,8.844450951E0
3.551449519E0,3.289733648E0,-1.256994247E0,8.801354408E0
3.553450852E0,3.311282158E0,-1.252205729E0,8.779806137E0
3.555452218E0,3.351984739E0,-1.245022893E0,8.746285439E0
3.557453551E0,3.349590540E0,-1.235445857E0,8.705583572E0
3.559454884E0,3.375927448E0,-1.211503029E0,8.688823700E0
3.563454983E0,3.445361376E0,-1.194743156E0,8.739103317E0
3.565456316E0,3.507612705E0,-1.192348838E0,8.753468513E0
3.567457649E0,3.581835032E0,-1.189954638E0,8.736708641E0
3.569458982E0,3.612960577E0,-1.185166001E0,8.746285439E0
3.571460348E0,3.706337452E0,-1.194743156E0,8.767834663E0
3.573461681E0,3.794925690E0,-1.192348838E0,8.782199860E0
3.575463014E0,3.842811108E0,-1.192348838E0,8.777411461E0
3.577464380E0,3.919427872E0,-1.197137356E0,8.763046265E0
3.579465713E0,4.012804508E0,-1.201925993E0,8.760651588E0
3.581467046E0,4.039141655E0,-1.180377483E0,8.801354408E0
3.583467412E0,4.122941017E0,-1.151646137E0,8.846845627E0
3.585468745E0,4.173221111E0,-1.122914910E0,8.861210823E0
3.587470078E0,4.283357620E0,-1.098972082E0,8.861210823E0
3.589471411E0,4.357580185E0,-1.110943556E0,8.827691078E0
3.591472744E0,4.410254002E0,-1.113337755E0,8.796566010E0
3.593474077E0,4.472505569E0,-1.091789365E0,8.748680115E0
3.595475443E0,4.534756660E0,-1.082212210E0,8.715160370E0
3.597476776E0,4.577853203E0,-1.060663700E0,8.681640625E0
3.599478109E0,4.597007751E0,-1.079817891E0,8.633754730E0
3.601479475E0,4.618556023E0,-1.041509509E0,8.669669151E0
3.603484108E0,4.642498970E0,-1.012778282E0,8.681640625E0
3.605485441E0,4.709538460E0,-9.720755816E-1,8.696005821E0
3.607486807E0,4.723904133E0,-9.624984860E-1,8.710371971E0
3.609488140E0,4.771789551E0,-9.601042271E-1,8.681640625E0
3.611489473E0,4.829252243E0,-9.577099085E-1,8.660092354E0
3.613490839E0,4.860377789E0,-9.481328130E-1,8.631361008E0
3.615492172E0,4.903474808E0,-9.217957854E-1,8.590658188E0
3.617493505E0,4.953754425E0,-9.098244309E-1,8.530800819E0
3.619494871E0,4.963331699E0,-9.122186899E-1,8.502069473E0
3.621496204E0,4.984879971E0,-8.763045669E-1,8.427846909E0
3.623497537E0,5.042342663E0,-8.882759809E-1,8.348835945E0
3.625498903E0,5.056708336E0,-8.786988258E-1,8.303344727E0
3.627500236E0,5.039948463E0,-8.715160489E-1,8.212362289E0
3.629501569E0,5.030371189E0,-8.834874034E-1,8.166871071E0
3.631502902E0,5.011217117E0,-8.810931444E-1,8.080677032E0
3.633504235E0,5.013611317E0,-9.074301720E-1,8.018425941E0
3.635505535E0,5.006428719E0,-9.265843630E-1,7.982511997E0
3.637506801E0,4.999245644E0,-9.409499764E-1,7.903501034E0
3.639508067E0,4.984879971E0,-9.672870040E-1,7.855615616E0
3.641509100E0,4.992063046E0,-9.768640995E-1,7.846038342E0
3.643510733E0,4.992063046E0,-9.792584181E-1,7.867587090E0
3.645512066E0,4.996851444E0,-1.010383964E0,7.893924236E0
3.647513432E0,4.992063046E0,-1.024749637E0,7.922655106E0
3.649514798E0,4.999245644E0,-1.077423692E0,7.987300873E0
3.651516131E0,5.020794392E0,-1.089395046E0,8.073494911E0
3.653517497E0,5.059102535E0,-1.072635174E0,8.104619980E0
3.655518830E0,5.118959427E0,-1.108549237E0,8.181237221E0
3.657520163E0,5.162056446E0,-1.122914910E0,8.209968567E0
3.659521529E0,5.229096413E0,-1.127703428E0,8.255459785E0
3.661523129E0,5.284164429E0,-1.134886265E0,8.284191132E0
3.665522528E0,5.389512539E0,-1.134886265E0,8.277008057E0
3.667523861E0,5.456552505E0,-1.106154919E0,8.233911514E0
3.669525194E0,5.470917702E0,-1.096577883E0,8.200390816E0
3.671526560E0,5.509226322E0,-1.077423692E0,8.162082672E0
3.673527893E0,5.557111740E0,-1.046298146E0,8.109408379E0
3.675529226E0,5.566689014E0,-1.029538155E0,8.102226257E0
3.677530592E0,5.585843086E0,-1.019961119E0,8.018425941E0
3.679531925E0,5.621757030E0,-1.003201127E0,7.994483471E0
3.681533258E0,5.686402798E0,-9.864411950E-1,7.927443981E0
3.683534624E0,5.724710941E0,-9.912297726E-1,7.843644142E0
3.685535957E0,5.729499817E0,-9.912297726E-1,7.819701672E0
3.687537290E0,5.736682415E0,-9.792584181E-1,7.767027378E0
3.689538656E0,5.722316742E0,-9.840469360E-1,7.750267506E0
3.691539989E0,5.717528343E0,-9.864411950E-1,7.752661705E0
3.693541322E0,5.703162670E0,-9.984126091E-1,7.752661705E0
3.695542722E0,5.643305779E0,-9.912297726E-1,7.776604652E0
3.697544122E0,5.631334305E0,-9.840469360E-1,7.800547123E0
3.699545522E0,5.612180233E0,-1.007989645E0,7.834067345E0
3.701547188E0,5.624151707E0,-1.034326673E0,7.841249943E0
3.703548521E0,5.645699978E0,-1.029538155E0,7.874769688E0
3.705549854E0,5.693585396E0,-1.015172482E0,7.846038342E0
3.707551187E0,5.729499817E0,-1.036720991E0,7.831672668E0
3.709552520E0,5.770202160E0,-1.048692346E0,7.807730198E0
3.711553886E0,5.772596359E0,-1.027143836E0,7.774210453E0
3.713555219E0,5.767807961E0,-1.017566800E0,7.764633179E0
3.715556552E0,5.777385235E0,-1.005595446E0,7.683228016E0
3.717557918E0,5.796539307E0,-1.005595446E0,7.661679268E0
3.719559251E0,5.813299179E0,-9.648927450E-1,7.654496670E0
3.721561017E0,5.810904980E0,-9.241901040E-1,7.637736797E0
3.723562050E0,5.791750908E0,-8.786988258E-1,7.604216576E0
3.725563383E0,5.784567833E0,-8.547561169E-1,7.587456703E0
3.727564716E0,5.851607800E0,-8.116591573E-1,7.575485706E0
3.729566082E0,5.880339146E0,-7.733507752E-1,7.553936958E0
3.731567415E0,5.937801361E0,-7.182824612E-1,7.529994488E0
3.733568748E0,5.995264053E0,-6.488484740E-1,7.491685867E0
3.735570114E0,6.016812801E0,-6.225114465E-1,7.484503269E0
3.737571447E0,6.076669693E0,-5.626545548E-1,7.446194649E0
3.739572780E0,6.126949310E0,-5.363175869E-1,7.441406250E0
3.741574146E0,6.095823765E0,-5.051919818E-1,7.410280704E0
3.743575479E0,6.134131908E0,-4.237866402E-1,7.436617374E0
3.745576812E0,6.198777676E0,-3.519583941E-1,7.553936958E0
3.747578178E0,6.251451492E0,-3.280156553E-1,7.609005451E0
3.749579511E0,6.308914185E0,-2.873129845E-1,7.680833817E0
3.751580844E0,6.352011204E0,-2.705530524E-1,7.707170486E0
3.753582210E0,6.402290821E0,-2.657645047E-1,7.743084908E0
3.755583543E0,6.438204765E0,-2.250618339E-1,7.716747761E0
3.757585576E0,6.474119186E0,-2.106961906E-1,7.699987888E0
3.759586942E0,6.517216206E0,-1.843591630E-1,7.685622215E0
3.761588275E0,6.493273258E0,-1.628106833E-1,7.640130997E0
3.763589608E0,6.502850533E0,-1.580221355E-1,7.623371124E0
3.765590974E0,6.517216206E0,-1.460507661E-1,7.585062504E0
3.767592307E0,6.531581879E0,-1.173194647E-1,7.570696831E0
3.769593640E0,6.519610405E0,-9.577099234E-2,7.570696831E0
3.771594973E0,6.507638931E0,-7.422251999E-2,7.585062504E0
3.773596306E0,6.495667458E0,-5.506832153E-2,7.587456703E0
3.775597639E0,6.490879059E0,-5.746259540E-2,7.592245579E0
3.777598972E0,6.490879059E0,-6.943397224E-2,7.597033978E0
3.779600305E0,6.490879059E0,-6.943397224E-2,7.575485706E0
3.781600605E0,6.493273258E0,-6.464541703E-2,7.568302631E0
3.783602271E0,6.440599442E0,-9.098244458E-2,7.498868465E0
3.785603604E0,6.419050694E0,-1.029538140E-1,7.470137596E0
3.787604970E0,6.325674057E0,-9.577099234E-2,7.419857502E0
3.789606303E0,6.277788639E0,-1.197137386E-1,7.374366283E0
3.791607636E0,6.256239891E0,-1.268965602E-1,7.345634937E0
3.793609002E0,6.268211365E0,-1.508393139E-1,7.297749519E0
3.795610335E0,6.277788639E0,-1.628106833E-1,7.240286827E0
3.797611668E0,6.263422966E0,-1.652049571E-1,7.216344357E0
3.799613034E0,6.189200401E0,-1.867534369E-1,7.146910191E0
3.801614367E0,6.165257454E0,-1.915419847E-1,7.113390446E0
3.803615700E0,6.088640690E0,-1.915419847E-1,7.067899227E0
3.805617066E0,6.021601200E0,-1.867534369E-1,7.043956280E0
3.807618399E0,6.002447128E0,-1.843591630E-1,7.015225410E0
3.809619732E0,5.968926907E0,-1.747820675E-1,6.996070862E0
3.811621098E0,5.949772835E0,-1.987248063E-1,6.960156918E0
3.813622431E0,5.923435688E0,-1.867534369E-1,6.952973843E0
3.815623764E0,5.870761871E0,-1.867534369E-1,6.952973843E0
3.817624664E0,5.832453251E0,-2.083019018E-1,6.914665699E0
3.819625997E0,5.815693378E0,-2.370332032E-1,6.893116951E0
3.821627330E0,5.727105141E0,-2.681587934E-1,6.893116951E0
3.823628696E0,5.676825523E0,-2.921015322E-1,6.895511627E0
3.825630029E0,5.660065651E0,-3.136500120E-1,6.890722752E0
3.827631362E0,5.660065651E0,-3.280156553E-1,6.881145954E0
3.829633428E0,5.662459850E0,-3.351984620E-1,6.871568680E0
3.831634761E0,5.688796997E0,-3.375927508E-1,6.852414608E0
3.833636094E0,5.774991035E0,-3.423812985E-1,6.847625732E0
3.835637460E0,5.830059052E0,-3.447755575E-1,6.830865860E0
3.837638793E0,5.930618763E0,-3.639297783E-1,6.787769318E0
3.839640126E0,5.964138508E0,-3.854782581E-1,6.754249096E0
3.841641826E0,5.973715782E0,-4.118152559E-1,6.718335152E0
3.843643192E0,6.009629726E0,-4.549122155E-1,6.629746914E0
3.845644525E0,6.083852291E0,-4.812492430E-1,6.548341751E0
3.847645858E0,6.093429565E0,-4.932205975E-1,6.481301785E0
3.849647191E0,6.155680656E0,-5.339232683E-1,6.368771076E0
3.851648557E0,6.184412003E0,-5.770202279E-1,6.301731110E0
3.853649890E0,6.256239891E0,-6.368771195E-1,6.198777676E0
3.855651223E0,6.337645531E0,-6.967339516E-1,6.088640690E0
3.857652589E0,6.349617004E0,-7.230709791E-1,6.021601200E0
3.859653922E0,6.395108223E0,-7.901107073E-1,5.911464691E0
3.861655255E0,6.423839092E0,-8.667274714E-1,5.834847927E0
3.863656621E0,6.426233768E0,-8.978530765E-1,5.789356709E0
3.865657954E0,6.433416367E0,-8.954587579E-1,5.739076614E0
3.867659287E0,6.440599442E0,-8.978530765E-1,5.662459850E0
3.869660653E0,6.428627968E0,-9.122186899E-1,5.628940105E0
3.871661986E0,6.404685020E0,-9.433442950E-1,5.561900616E0
3.873663319E0,6.361588001E0,-9.577099085E-1,5.537957668E0
3.875664685E0,6.337645531E0,-9.505270720E-1,5.514014721E0
3.877666485E0,6.292154312E0,-9.624984860E-1,5.475706577E0
3.879667818E0,6.265817165E0,-9.696813226E-1,5.454157829E0
3.881669184E0,6.222720146E0,-9.577099085E-1,5.430215359E0
3.883670517E0,6.177228928E0,-9.098244309E-1,5.423032284E0
3.885671850E0,6.177228928E0,-8.858816624E-1,5.423032284E0
3.887673216E0,6.191594601E0,-8.547561169E-1,5.427821159E0
3.889673849E0,6.196382999E0,-8.619389534E-1,5.442186832E0
3.891675182E0,6.198777676E0,-8.595446348E-1,5.451763630E0
3.893676548E0,6.227508545E0,-8.427847624E-1,5.473312378E0
3.895677881E0,6.277788639E0,-8.332076073E-1,5.542746067E0
3.897679214E0,6.280182838E0,-8.236305118E-1,5.569083214E0
3.899680580E0,6.356799603E0,-8.092648983E-1,5.624151707E0
3.901681913E0,6.390319347E0,-8.044763207E-1,5.650488377E0
3.903683513E0,6.454965115E0,-7.829278708E-1,5.729499817E0
3.905684879E0,6.517216206E0,-7.948992252E-1,5.798933506E0
3.907686145E0,6.548341751E0,-7.853221297E-1,5.854001999E0
3.909687445E0,6.677632332E0,-7.805336118E-1,5.971321583E0
3.911688711E0,6.766220570E0,-7.853221297E-1,6.095823765E0
3.913690044E0,6.790163517E0,-7.853221297E-1,6.182017326E0
3.915691377E0,6.890722752E0,-7.948992252E-1,6.344828129E0
3.917698410E0,7.024802208E0,-7.877163887E-1,6.522004604E0
3.919699743E0,7.072687626E0,-7.901107073E-1,6.593832970E0
3.921701109E0,7.170853138E0,-7.781392932E-1,6.737489223E0
3.923702442E0,7.223526955E0,-7.757450342E-1,6.782980442E0
3.925703775E0,7.292961121E0,-7.613793612E-1,6.861991405E0
3.927704808E0,7.371972084E0,-7.374366522E-1,6.931425571E0
3.929706141E0,7.424646378E0,-7.134938836E-1,6.960156918E0
3.931707474E0,7.556331158E0,-6.943396926E-1,7.005648136E0
3.933708840E0,7.678439140E0,-6.368771195E-1,7.008042336E0
3.935710173E0,7.716747761E0,-6.033572555E-1,7.003253937E0
3.937710806E0,7.790970325E0,-5.578660369E-1,6.955368519E0
3.939712172E0,7.814912796E0,-4.740664065E-1,6.861991405E0
3.941713505E0,7.824490070E0,-4.405465722E-1,6.787769318E0
3.943714838E0,7.810124397E0,-3.998439014E-1,6.665660858E0
3.945716204E0,7.838855743E0,-3.375927508E-1,6.601015568E0
3.947717537E0,7.850827217E0,-3.256213665E-1,6.445387840E0
3.949718870E0,7.865192890E0,-2.729473412E-1,6.311308384E0
3.951720236E0,7.891529560E0,-2.442160249E-1,6.244268894E0
3.953721569E0,7.898712635E0,-1.915419847E-1,6.138920784E0
3.955722902E0,7.908289909E0,-1.652049571E-1,5.954561234E0
3.957724268E0,7.881952763E0,-1.532335877E-1,5.880339146E0
3.959725601E0,7.855615616E0,-1.819648892E-1,5.753442287E0
3.961726934E0,7.853221416E0,-1.843591630E-1,5.621757030E0
3.963728000E0,7.867587090E0,-1.843591630E-1,5.540351868E0
3.965729333E0,7.884346962E0,-2.154847383E-1,5.451763630E0
3.967730733E0,7.910684109E0,-2.418217510E-1,5.348809719E0
3.969732133E0,7.922655106E0,-2.490045726E-1,5.317684174E0
3.971733533E0,7.932232380E0,-2.897072434E-1,5.238673210E0
3.973734866E0,7.913078308E0,-3.040728867E-1,5.219519138E0
3.975736232E0,7.925049782E0,-3.471698463E-1,5.183605194E0
3.979733198E0,7.980117798E0,-4.333637357E-1,5.212336063E0
3.981734531E0,8.006455421E0,-4.836435020E-1,5.221913338E0
3.983735864E0,8.020820618E0,-4.884320498E-1,5.262616158E0
3.985737197E0,8.025609016E0,-5.027977228E-1,5.286558628E0
3.987738863E0,8.073494911E0,-5.530774593E-1,5.310501575E0
3.989740196E0,8.147717476E0,-5.770202279E-1,5.336838722E0
3.991741229E0,8.162082672E0,-5.937801600E-1,5.346415520E0
3.993742562E0,8.257853508E0,-5.913859010E-1,5.367964268E0
3.995743895E0,8.296162605E0,-6.009629965E-1,5.363175392E0
3.997745261E0,8.329682350E0,-6.057515144E-1,5.360781193E0
3.999746594E0,8.334470749E0,-5.961744189E-1,5.411061287E0
4.001747927E0,8.336864471E0,-5.770202279E-1,5.425426483E0
4.003749293E0,8.339259148E0,-5.506832004E-1,5.458946705E0
4.005750626E0,8.312922478E0,-4.956148863E-1,5.490072250E0
4.007751959E0,8.300951004E0,-4.644893110E-1,5.487678051E0
4.009753325E0,8.238699913E0,-4.142095447E-1,5.492466450E0
4.011754658E0,8.178842545E0,-3.735068738E-1,5.478100777E0
4.013755991E0,8.126168251E0,-3.375927508E-1,5.470917702E0
4.015757357E0,8.030397415E0,-2.873129845E-1,5.456552505E0
4.017758690E0,7.946598053E0,-2.394274771E-1,5.420638084E0
4.019760023E0,7.843644142E0,-2.130904645E-1,5.346415520E0
4.021761389E0,7.778998852E0,-1.939362586E-1,5.324867249E0
4.023762722E0,7.716747761E0,-1.675992310E-1,5.293741703E0
4.025764055E0,7.620976925E0,-1.436564922E-1,5.241067410E0
4.027765421E0,7.506051540E0,-1.268965602E-1,5.188393593E0
4.029766754E0,7.453377247E0,-1.173194647E-1,5.166844845E0
4.031768087E0,7.388731956E0,-1.268965602E-1,5.147690773E0
4.033769453E0,7.331269264E0,-1.221080124E-1,5.152479172E0
4.035770786E0,7.297749519E0,-1.340793967E-1,5.154873848E0
4.037772119E0,7.257047176E0,-1.460507661E-1,5.162056446E0
4.039773485E0,7.218738556E0,-1.604164094E-1,5.207547665E0
4.041774818E0,7.206767082E0,-1.652049571E-1,5.241067410E0
4.043776151E0,7.201978683E0,-1.723877788E-1,5.305713177E0
4.045777517E0,7.197190285E0,-2.083019018E-1,5.351204395E0
4.047778850E0,7.218738556E0,-2.370332032E-1,5.437397957E0
4.049780183E0,7.261835575E0,-2.753416002E-1,5.530774593E0
4.051781849E0,7.285778046E0,-2.825244367E-1,5.583448887E0
4.053783182E0,7.355212212E0,-2.944957912E-1,5.655277252E0
4.055784515E0,7.431828976E0,-3.232271075E-1,5.707951069E0
4.057785848E0,7.470137596E0,-3.136500120E-1,5.722316742E0
4.059787181E0,7.565908432E0,-3.328042030E-1,5.760625362E0
4.061788547E0,7.661679268E0,-3.351984620E-1,5.751048088E0
4.063789880E0,7.716747761E0,-3.280156553E-1,5.741470814E0
4.065791213E0,7.802941799E0,-3.016786277E-1,5.703162670E0
4.067792579E0,7.877163887E0,-2.849186957E-1,5.679219723E0
4.069793912E0,7.913078308E0,-2.681587934E-1,5.619362831E0
4.071795245E0,7.968146324E0,-2.394274771E-1,5.537957668E0
4.073796611E0,7.999272346E0,-2.274561077E-1,5.492466450E0
4.075797944E0,8.063917160E0,-1.915419847E-1,5.382329941E0
4.077799277E0,8.104619980E0,-1.604164094E-1,5.265010357E0
4.079800643E0,8.111803055E0,-1.316851079E-1,5.159662247E0
4.081801976E0,8.121379852E0,-1.053480953E-1,5.109382629E0
4.083803309E0,8.126168251E0,-9.098244458E-2,5.018400192E0
4.085804675E0,8.140534401E0,-6.225114316E-2,4.951360226E0
4.087806008E0,8.140534401E0,-4.070267081E-2,4.869955063E0
4.089807274E0,8.130957603E0,-5.746259540E-2,4.790944099E0
4.091808640E0,8.116591454E0,-5.506832153E-2,4.764606953E0
4.093809973E0,8.083071709E0,-3.591412306E-2,4.654470444E0
4.095811306E0,8.061523438E0,-3.830839694E-2,4.606584549E0
4.097812672E0,8.035185814E0,-4.549122229E-2,4.570670605E0
4.099814005E0,8.008849144E0,-6.703969836E-2,4.532361984E0
4.101815338E0,8.018425941E0,-5.027977005E-2,4.503631115E0
4.103816704E0,8.018425941E0,-3.830839694E-2,4.482082367E0
4.105818037E0,8.004060745E0,-3.830839694E-2,4.462928295E0
4.107819070E0,7.992089272E0,-2.633702382E-2,4.482082367E0
4.109820136E0,7.994483471E0,-3.112557158E-2,4.484476566E0
4.111821469E0,8.013637543E0,-2.633702382E-2,4.532361984E0
4.113822802E0,8.030397415E0,-2.394274808E-3,4.568276405E0
4.115824168E0,8.049551964E0,1.436564885E-2,4.632921696E0
4.117825501E0,8.063917160E0,3.830839694E-2,4.666441441E0
4.119827201E0,8.068706512E0,3.830839694E-2,4.695172787E0
4.121828534E0,8.099831581E0,5.027977005E-2,4.778972626E0
4.123829867E0,8.116591454E0,6.464541703E-2,4.810098171E0
4.125831200E0,8.121379852E0,8.379961550E-2,4.867560863E0
4.127832800E0,8.152505875E0,1.053480953E-1,4.920234680E0
4.129834133E0,8.174054146E0,1.077423692E-1,4.948966026E0
4.131835499E0,8.183630943E0,1.173194647E-1,5.032765865E0
4.133836832E0,8.243488312E0,9.577099234E-2,5.085439682E0
4.135838165E0,8.262641907E0,1.053480953E-1,5.116565228E0
4.137839531E0,8.286584854E0,9.816526622E-2,5.142902374E0
4.139840864E0,8.286584854E0,7.422251999E-2,5.147690773E0
4.141842197E0,8.317710876E0,7.422251999E-2,5.145296574E0
4.143843563E0,8.341653824E0,7.661679387E-2,5.181210518E0
4.145844896E0,8.336864471E0,7.182824612E-2,5.195576191E0
4.147846229E0,8.341653824E0,5.267404765E-2,5.195576191E0
4.149847662E0,8.322499275E0,4.788549617E-2,5.181210518E0
4.151848995E0,8.320104599E0,4.070267081E-2,5.185999393E0
4.153850328E0,8.348835945E0,-4.788549617E-3,5.171633720E0
4.155851694E0,8.312922478E0,-5.027977005E-2,5.140508175E0
4.157853027E0,8.303344727E0,-6.943397224E-2,5.126142502E0
4.159854360E0,8.344047546E0,-7.661679387E-2,5.118959427E0
4.161855726E0,8.344047546E0,-9.098244458E-2,5.102199554E0
4.163860392E0,8.346442223E0,-1.029538140E-1,5.080651283E0
4.165861725E0,8.363202095E0,-1.221080124E-1,5.030371189E0
4.167863391E0,8.341653824E0,-1.556278616E-1,5.016005516E0
4.169865024E0,8.332076073E0,-1.699935049E-1,4.975303173E0
4.171866357E0,8.358413696E0,-1.675992310E-1,4.934600353E0
4.173867390E0,8.356019020E0,-1.699935049E-1,4.881926537E0
4.175868723E0,8.346442223E0,-1.628106833E-1,4.824463844E0
4.177870056E0,8.324893951E0,-1.628106833E-1,4.743058205E0
4.179871056E0,8.305739403E0,-1.484450400E-1,4.697566986E0
4.181872389E0,8.291373253E0,-1.292908341E-1,4.623344421E0
4.183873722E0,8.315316200E0,-1.221080124E-1,4.534756660E0
4.185875088E0,8.298556328E0,-1.221080124E-1,4.513207912E0
4.187876154E0,8.305739403E0,-8.379961550E-2,4.441379547E0
4.189877487E0,8.324893951E0,-4.309694469E-2,4.367157459E0
4.191878820E0,8.329682350E0,-3.112557158E-2,4.314483166E0
4.193880153E0,8.329682350E0,-2.394274808E-3,4.221106529E0
4.195881486E0,8.329682350E0,2.154847234E-2,4.178009510E0
4.197882819E0,8.322499275E0,4.549122229E-2,4.122941017E0
4.199884152E0,8.303344727E0,4.788549617E-2,4.070267200E0
4.201885485E0,8.296162605E0,5.985686928E-2,4.036747456E0
4.203886818E0,8.277008057E0,9.816526622E-2,4.008016109E0
4.205888151E0,8.286584854E0,1.005595401E-1,3.984073162E0
4.207889517E0,8.293767929E0,1.125309169E-1,3.976890564E0
4.209890850E0,8.257853508E0,1.532335877E-1,3.960130453E0
4.211892183E0,8.265036583E0,1.508393139E-1,3.955342054E0
4.213894249E0,8.265036583E0,1.699935049E-1,3.967313290E0
4.215895582E0,8.281796455E0,1.915419847E-1,3.950553417E0
4.217896915E0,8.284191132E0,2.106961906E-1,3.962524891E0
4.219898281E0,8.288979530E0,2.106961906E-1,3.957736254E0
4.221900047E0,8.298556328E0,2.250618339E-1,3.981678963E0
4.225899413E0,8.305739403E0,2.298503816E-1,4.008016109E0
4.227900746E0,8.320104599E0,2.322446555E-1,4.046324253E0
4.229902079E0,8.324893951E0,2.394274771E-1,4.082238674E0
4.231903445E0,8.332076073E0,2.418217510E-1,4.139701366E0
4.233905111E0,8.310527802E0,2.250618339E-1,4.151672363E0
4.235906444E0,8.312922478E0,2.298503816E-1,4.178009510E0
4.237907810E0,8.322499275E0,2.370332032E-1,4.233078003E0
4.239909143E0,8.365595818E0,2.537931204E-1,4.252232075E0
4.241910476E0,8.382355690E0,2.442160249E-1,4.290540695E0
4.243911576E0,8.427846909E0,2.513988614E-1,4.324060440E0
4.245912909E0,8.427846909E0,2.585816681E-1,4.333637238E0
4.247914242E0,8.439818382E0,2.825244367E-1,4.348002911E0
4.249915608E0,8.490098000E0,2.897072434E-1,4.348002911E0
4.251916941E0,8.504464149E0,2.968900800E-1,4.352791786E0
4.253918274E0,8.516435623E0,3.016786277E-1,4.312088966E0
4.255919374E0,8.528407097E0,2.825244367E-1,4.297723293E0
4.257920707E0,8.564320564E0,2.897072434E-1,4.300117493E0
4.259922040E0,8.626572609E0,3.184385598E-1,4.290540695E0
4.261923406E0,8.686429024E0,3.399870098E-1,4.271386147E0
4.263924406E0,8.727131844E0,3.567469418E-1,4.261809349E0
4.265925506E0,8.736708641E0,3.806896806E-1,4.233078003E0
4.267926839E0,8.748680115E0,3.615354896E-1,4.194769382E0
4.269927839E0,8.758256912E0,3.735068738E-1,4.144489765E0
4.271929172E0,8.775016785E0,3.615354896E-1,4.098998547E0
4.273929805E0,8.786988258E0,3.351984620E-1,4.055901527E0
4.275931138E0,8.786988258E0,2.944957912E-1,4.015198708E0
4.277932504E0,8.803748131E0,2.681587934E-1,3.984073162E0
4.279933837E0,8.794171333E0,2.585816681E-1,3.972101927E0
4.281934737E0,8.803748131E0,2.585816681E-1,3.955342054E0
4.283936103E0,8.810931206E0,2.442160249E-1,3.924216509E0
4.285937436E0,8.803748131E0,2.370332032E-1,3.883513689E0
4.287938769E0,8.818114281E0,2.154847383E-1,3.823656797E0
4.289940135E0,8.849239349E0,2.011190802E-1,3.792531252E0
4.291941468E0,8.892336845E0,1.747820675E-1,3.742251635E0
4.293942801E0,8.921068192E0,1.292908341E-1,3.644086361E0
4.295944167E0,8.949799538E0,1.149251908E-1,3.634509087E0
4.297945500E0,8.971347809E0,8.858817071E-2,3.612960577E0
4.299946833E0,8.968953133E0,4.788549617E-2,3.581835032E0
4.301948199E0,8.995290756E0,5.746259540E-2,3.577046633E0
4.303949799E0,9.016839027E0,3.591412306E-2,3.555498123E0
