"Time (s)","Gyroscope x (rad/s)","Gyroscope y (rad/s)","Gyroscope z (rad/s)"
0.000000000E0,-1.866804063E-2,-7.521358132E-1,3.401664272E-2
2.001500000E-3,-2.111150324E-2,-7.466380000E-1,3.890356421E-2
4.002833000E-3,-2.233323269E-2,-7.331990004E-1,3.157318011E-2
6.004083000E-3,-2.294410020E-2,-7.099860907E-1,4.256875440E-2
8.044883000E-3,-2.477669530E-2,-7.002122402E-1,3.768183663E-2
1.004621600E-2,-2.294410020E-2,-6.941035986E-1,3.768183663E-2
1.204750100E-2,-3.027448058E-2,-6.831079721E-1,3.951442987E-2
1.404887600E-2,-2.783101983E-2,-6.653928757E-1,3.890356421E-2
1.605020900E-2,-2.538755909E-2,-6.537864804E-1,3.890356421E-2
1.805150900E-2,-3.271793947E-2,-6.415691376E-1,4.317962006E-2
2.005287200E-2,-2.722015604E-2,-6.385148168E-1,3.829269856E-2
2.206870500E-2,-3.271793947E-2,-6.293518543E-1,4.745567590E-2
2.406932000E-2,-3.638313338E-2,-6.238540411E-1,4.562308267E-2
2.607067700E-2,-3.577227145E-2,-6.128585339E-1,3.829269856E-2
2.807201000E-2,-2.966361679E-2,-6.073607206E-1,4.501221329E-2
3.007269700E-2,-3.393967450E-2,-6.030846834E-1,4.256875440E-2
3.207404900E-2,-3.271793947E-2,-6.018629074E-1,4.134702682E-2
3.407627100E-2,-3.821573034E-2,-5.957542658E-1,3.523837402E-2
3.607763900E-2,-3.638313338E-2,-5.945325494E-1,3.951442987E-2
3.807898900E-2,-3.516140208E-2,-5.951434374E-1,4.073616117E-2
4.008032200E-2,-4.004832357E-2,-5.902564526E-1,3.707096726E-2
4.208168500E-2,-3.943746164E-2,-5.908674002E-1,3.584923968E-2
4.408581500E-2,-3.943746164E-2,-5.902564526E-1,3.401664272E-2
4.608714800E-2,-4.127005860E-2,-5.896456242E-1,3.401664272E-2
4.808850800E-2,-4.004832357E-2,-5.933107734E-1,3.279491141E-2
5.008985400E-2,-4.004832357E-2,-5.908674002E-1,2.851885371E-2
5.209118700E-2,-4.310265183E-2,-5.914782286E-1,2.974058501E-2
5.409261500E-2,-4.004832357E-2,-5.939217210E-1,3.218404949E-2
5.609395900E-2,-4.432438314E-2,-5.951434374E-1,2.546452917E-2
5.809529200E-2,-3.760486469E-2,-6.012520790E-1,2.485366166E-2
6.009665800E-2,-4.127005860E-2,-5.945325494E-1,2.668625861E-2
6.209802400E-2,-3.699399903E-2,-6.006411910E-1,2.424279787E-2
6.409935700E-2,-3.271793947E-2,-6.043063998E-1,2.241020277E-2
6.610072300E-2,-3.943746164E-2,-6.073607206E-1,1.630154997E-2
7.009682200E-2,-3.271793947E-2,-6.207997203E-1,1.569068432E-2
7.209818800E-2,-3.271793947E-2,-6.250758171E-1,1.630154997E-2
7.409952100E-2,-3.210707754E-2,-6.317953467E-1,1.752328128E-2
7.610085400E-2,-3.516140208E-2,-6.379039884E-1,1.202549320E-2
7.810222000E-2,-3.210707754E-2,-6.513429880E-1,1.263635792E-2
8.010355300E-2,-3.332880884E-2,-6.562299132E-1,1.813414507E-2
8.410075200E-2,-4.615698010E-2,-6.751667261E-1,1.263635792E-2
8.610208500E-2,-4.493524879E-2,-6.843296885E-1,1.324722357E-2
8.810341800E-2,-4.310265183E-2,-6.989904642E-1,1.996674202E-2
9.010511800E-2,-4.615698010E-2,-7.142621279E-1,1.752328128E-2
9.210645100E-2,-4.921130463E-2,-7.173164487E-1,1.569068432E-2
9.410725100E-2,-5.104389787E-2,-7.331990004E-1,1.935587637E-2
9.610858400E-2,-5.409822613E-2,-7.405293584E-1,1.935587637E-2
9.811061700E-2,-5.531995744E-2,-7.515249252E-1,2.118847333E-2
1.001126830E-1,-5.470909178E-2,-7.667965889E-1,2.241020277E-2
1.021140160E-1,-5.715255439E-2,-7.784029245E-1,2.363193408E-2
1.061152820E-1,-5.837428197E-2,-8.052810431E-1,2.607539296E-2
1.081166150E-1,-6.203947589E-2,-8.138331771E-1,2.485366166E-2
1.101179480E-1,-5.531995744E-2,-8.272722363E-1,2.424279787E-2
1.121193140E-1,-5.043303221E-2,-8.474307060E-1,2.424279787E-2
1.141207140E-1,-5.409822613E-2,-8.492633700E-1,2.302106842E-2
1.161220470E-1,-4.982217029E-2,-8.596480489E-1,2.607539296E-2
1.181234130E-1,-4.737870768E-2,-8.743088245E-1,2.241020277E-2
1.201254460E-1,-4.554611072E-2,-8.822500706E-1,2.179933712E-2
1.221267460E-1,-4.432438314E-2,-8.950782418E-1,2.118847333E-2
1.241279790E-1,-4.188092053E-2,-8.932456374E-1,2.302106842E-2
1.261293120E-1,-4.188092053E-2,-9.103498459E-1,1.874501072E-2
1.281306450E-1,-4.127005860E-2,-9.164584875E-1,1.569068432E-2
1.301320110E-1,-3.882659599E-2,-9.219563007E-1,1.630154997E-2
1.321333440E-1,-3.760486469E-2,-9.353953004E-1,1.202549320E-2
1.341346770E-1,-3.516140208E-2,-9.494452477E-1,1.141462848E-2
1.361360430E-1,-3.699399903E-2,-9.518887401E-1,5.916840397E-3
1.381373760E-1,-3.760486469E-2,-9.641060233E-1,1.141462848E-2
1.401387090E-1,-3.149621189E-2,-9.836536646E-1,9.582032450E-3
1.421400750E-1,-3.760486469E-2,-9.860971570E-1,6.527706049E-3
1.441414080E-1,-3.393967450E-2,-9.958710074E-1,5.305975210E-3
1.461427410E-1,-3.210707754E-2,-1.008699179E0,2.862514462E-3
1.481443740E-1,-2.844188549E-2,-1.016029596E0,1.640783972E-3
1.501464070E-1,-2.722015604E-2,-1.025803328E0,4.190535401E-4
1.521474070E-1,-2.660928853E-2,-1.027635932E0,1.640783972E-3
1.541487730E-1,-1.988977194E-2,-1.031912088E0,-1.413542195E-3
1.561498060E-1,-1.805717684E-2,-1.038631558E0,4.190535401E-4
1.581504390E-1,-1.622457989E-2,-1.038020730E0,-1.413542195E-3
1.601520390E-1,-7.061602082E-3,-1.037409782E0,-4.467868246E-3
1.621533720E-1,-5.839871708E-3,-1.036798954E0,-8.133059368E-3
1.641547050E-1,-3.396410728E-3,-1.033744574E0,-8.133059368E-3
1.661553380E-1,2.712241607E-3,-1.023359895E0,-6.300464272E-3
1.681566710E-1,6.988298614E-3,-1.021527290E0,-7.522194646E-3
1.701580040E-1,9.431759827E-3,-1.019083858E0,-3.857003292E-3
1.721593370E-1,1.431868132E-2,-1.000757933E0,-8.743925020E-3
1.741604700E-1,1.981646940E-2,-9.940384030E-1,-4.467868246E-3
1.761618360E-1,1.798387244E-2,-9.787667990E-1,-1.057652105E-2
1.781631690E-1,2.470339090E-2,-9.604408145E-1,-8.133059368E-3
1.801638020E-1,2.592512220E-2,-9.476126432E-1,-6.911329459E-3
1.821651680E-1,2.897944674E-2,-9.225671887E-1,-6.300464272E-3
1.841663010E-1,3.508809954E-2,-9.048520923E-1,-1.179825142E-2
1.861676340E-1,3.569896147E-2,-8.883587122E-1,-7.522194646E-3
1.881690000E-1,4.669453949E-2,-8.724762797E-1,-5.078733433E-3
1.901703330E-1,4.608367383E-2,-8.431547284E-1,-3.246137872E-3
1.921716660E-1,4.913800210E-2,-8.254395723E-1,-2.635272685E-3
1.941730320E-1,4.791627079E-2,-8.016158342E-1,-2.635272685E-3
1.961741650E-1,5.463578925E-2,-7.906203270E-1,-2.635272685E-3
1.981754980E-1,5.707925186E-2,-7.612987757E-1,1.029918785E-3
2.001768640E-1,5.952271074E-2,-7.356423736E-1,2.862514462E-3
2.021778640E-1,5.769011378E-2,-7.246468663E-1,5.916840397E-3
2.041791970E-1,6.318789721E-2,-7.014339566E-1,7.749436423E-3
2.061805630E-1,6.196616963E-2,-6.788319945E-1,8.360302076E-3
2.081816290E-1,6.440962851E-2,-6.666146517E-1,1.141462848E-2
2.101822620E-1,6.929655373E-2,-6.501212716E-1,1.507981960E-2
2.121839620E-1,6.624222547E-2,-6.342387795E-1,2.179933712E-2
2.141852950E-1,6.929655373E-2,-6.220214963E-1,2.179933712E-2
2.161869280E-1,6.502050161E-2,-6.091933250E-1,2.546452917E-2
2.181882940E-1,6.807482243E-2,-5.963650942E-1,2.790798992E-2
2.201886600E-1,7.051828504E-2,-5.890347362E-1,3.218404949E-2
2.221899930E-1,6.807482243E-2,-5.786499977E-1,4.073616117E-2
2.241913590E-1,7.174001634E-2,-5.804826617E-1,4.073616117E-2
2.261926920E-1,6.807482243E-2,-5.755956769E-1,4.562308267E-2
2.281940250E-1,6.318789721E-2,-5.713196397E-1,5.661865696E-2
2.301953910E-1,6.746395677E-2,-5.743739605E-1,5.967298150E-2
2.321967240E-1,7.112915069E-2,-5.725413561E-1,6.639250368E-2
2.341980570E-1,6.929655373E-2,-5.768174529E-1,7.677720487E-2
2.361993900E-1,7.235087454E-2,-5.780391693E-1,7.677720487E-2
2.382007230E-1,6.685309857E-2,-5.865913033E-1,8.166413009E-2
2.402020560E-1,6.685309857E-2,-5.939217210E-1,9.265970439E-2
2.422033890E-1,6.746395677E-2,-5.994194150E-1,9.876835346E-2
2.442050550E-1,6.440962851E-2,-6.085824370E-1,1.036552787E-1
2.462064210E-1,6.135530397E-2,-6.134693623E-1,1.079313383E-1
2.482077540E-1,6.074443832E-2,-6.287409663E-1,1.103747934E-1
2.502090870E-1,6.013357639E-2,-6.458452344E-1,1.158725843E-1
2.522104530E-1,5.646838248E-2,-6.525647640E-1,1.140399873E-1
2.542117860E-1,5.646838248E-2,-6.647820473E-1,1.238138378E-1
2.562133190E-1,5.463578925E-2,-6.855514646E-1,1.268681586E-1
2.582146850E-1,5.707925186E-2,-6.941035986E-1,1.329768002E-1
2.602160180E-1,5.158146471E-2,-7.160947323E-1,1.341985464E-1
2.622176840E-1,5.341405794E-2,-7.423619628E-1,1.409180611E-1
2.642190500E-1,5.035972968E-2,-7.564117908E-1,1.427506506E-1
2.662208160E-1,4.974886775E-2,-7.857333422E-1,1.427506506E-1
2.682221490E-1,4.974886775E-2,-8.132222891E-1,1.415289342E-1
2.702235150E-1,4.913800210E-2,-8.248287439E-1,1.451941282E-1
2.722248480E-1,5.341405794E-2,-8.553720117E-1,1.445832551E-1
2.742308810E-1,4.547280818E-2,-8.828609586E-1,1.445832551E-1
2.762322470E-1,5.341405794E-2,-9.036303759E-1,1.390854716E-1
2.782332800E-1,5.035972968E-2,-9.378387928E-1,1.409180611E-1
2.802346130E-1,5.097059533E-2,-9.549430609E-1,1.348094046E-1
2.822359790E-1,4.852713272E-2,-9.824319482E-1,1.366419941E-1
2.842373120E-1,5.097059533E-2,-1.014196992E0,1.329768002E-1
2.862386450E-1,5.035972968E-2,-1.028857827E0,1.299224794E-1
2.882400110E-1,5.219232664E-2,-1.061844468E0,1.268681586E-1
2.902413440E-1,5.219232664E-2,-1.086889863E0,1.164834499E-1
2.922426770E-1,5.341405794E-2,-1.098496318E0,1.207595095E-1
2.942441100E-1,4.974886775E-2,-1.130261302E0,1.152617186E-1
2.962454430E-1,5.524665490E-2,-1.144311309E0,1.091530696E-1
2.982467760E-1,6.013357639E-2,-1.169967651E0,1.073204726E-1
3.002481420E-1,5.891184136E-2,-1.195013046E0,9.937922657E-2
3.022494750E-1,6.563135982E-2,-1.205397844E0,9.449230134E-2
3.042508080E-1,6.074443832E-2,-1.223723769E0,8.838365227E-2
3.062521410E-1,6.563135982E-2,-1.243882298E0,7.372288406E-2
3.082534740E-1,6.868569553E-2,-1.257932305E0,7.372288406E-2
3.102548070E-1,7.662694156E-2,-1.259764791E0,6.822510064E-2
3.122561400E-1,8.151385188E-2,-1.279923320E0,5.722952262E-2
3.142574730E-1,8.395732194E-2,-1.281755924E0,5.967298150E-2
3.162588390E-1,9.189856797E-2,-1.300692797E0,5.539692566E-2
3.182606050E-1,8.823337406E-2,-1.311077476E0,5.356433243E-2
3.202619380E-1,9.189856797E-2,-1.318407893E0,5.234259740E-2
3.222629710E-1,9.922894835E-2,-1.320851326E0,5.173173547E-2
3.242643040E-1,1.041158736E-1,-1.331236124E0,4.867740721E-2
3.262652040E-1,1.071701944E-1,-1.341620684E0,4.989913851E-2
3.282663040E-1,1.090027913E-1,-1.355670691E0,4.867740721E-2
3.302676370E-1,1.090027913E-1,-1.361779332E0,5.051000044E-2
3.322690700E-1,1.181657687E-1,-1.365444422E0,4.989913851E-2
3.362677690E-1,1.187766418E-1,-1.383770347E0,5.051000044E-2
3.382694020E-1,1.212200969E-1,-1.401485443E0,4.928827286E-2
3.402707680E-1,1.316048056E-1,-1.414924502E0,4.928827286E-2
3.422721010E-1,1.291613430E-1,-1.411870241E0,5.234259740E-2
3.442734340E-1,1.291613430E-1,-1.417978883E0,5.356433243E-2
3.462748000E-1,1.316048056E-1,-1.424087524E0,5.661865696E-2
3.482761330E-1,1.303830743E-1,-1.425309300E0,6.211644411E-2
3.502774990E-1,1.371026039E-1,-1.425920129E0,6.211644411E-2
3.522789650E-1,1.346591413E-1,-1.422255039E0,6.394904107E-2
3.542802980E-1,1.358808577E-1,-1.421033144E0,6.639250368E-2
3.562816310E-1,1.371026039E-1,-1.411870241E0,7.005769014E-2
3.582829970E-1,1.352699995E-1,-1.414924502E0,6.883595884E-2
3.602839970E-1,1.383243203E-1,-1.400263786E0,8.227499574E-2
3.622853300E-1,1.395460516E-1,-1.388046503E0,8.410759270E-2
3.642868960E-1,1.444329768E-1,-1.380716085E0,8.532932401E-2
3.662882290E-1,1.426003873E-1,-1.369720578E0,9.082710743E-2
3.682895620E-1,1.444329768E-1,-1.360557675E0,8.838365227E-2
3.702909280E-1,1.468764395E-1,-1.344675064E0,9.632489830E-2
3.722922610E-1,1.529850960E-1,-1.324516535E0,9.999009222E-2
3.742935940E-1,1.548176855E-1,-1.319018722E0,1.030444205E-1
3.762949270E-1,1.517633647E-1,-1.295805812E0,1.036552787E-1
3.782958270E-1,1.597046107E-1,-1.276258230E0,1.079313383E-1
3.802971600E-1,1.621480733E-1,-1.264040947E0,1.091530696E-1
3.822988260E-1,1.658132672E-1,-1.240217209E0,1.079313383E-1
3.843001590E-1,1.749762446E-1,-1.213949919E0,1.146508530E-1
3.863015250E-1,1.737545133E-1,-1.209062934E0,1.152617186E-1
3.883031250E-1,1.743653715E-1,-1.182184935E0,1.128182635E-1
3.903044580E-1,1.816957593E-1,-1.159582853E0,1.213703677E-1
3.923057240E-1,1.847500950E-1,-1.143700480E0,1.232029647E-1
3.943060570E-1,1.841392219E-1,-1.123541832E0,1.207595095E-1
3.963073900E-1,1.884152889E-1,-1.107659340E0,1.195377707E-1
3.983087560E-1,1.823066324E-1,-1.084446430E0,1.250355542E-1
4.003100890E-1,1.847500950E-1,-1.059401035E0,1.232029647E-1
4.023114220E-1,1.859718114E-1,-1.046572924E0,1.201486439E-1
4.043127880E-1,1.914696097E-1,-1.019694805E0,1.201486439E-1
4.063141210E-1,1.884152889E-1,-9.958710074E-1,1.268681586E-1
4.083154540E-1,1.871935427E-1,-9.848754406E-1,1.268681586E-1
4.103165540E-1,1.829174906E-1,-9.543321729E-1,1.213703677E-1
4.123177870E-1,1.878044158E-1,-9.256215096E-1,1.225920990E-1
4.143191200E-1,1.871935427E-1,-9.109607339E-1,1.219812408E-1
4.163204860E-1,1.878044158E-1,-8.877478838E-1,1.225920990E-1
4.183218190E-1,1.871935427E-1,-8.749196529E-1,1.244246960E-1
4.203234850E-1,1.914696097E-1,-8.504850864E-1,1.238138378E-1
4.223248510E-1,1.853609532E-1,-8.248287439E-1,1.232029647E-1
4.243259840E-1,1.865826845E-1,-8.144440055E-1,1.195377707E-1
4.263273170E-1,1.884152889E-1,-7.869550586E-1,1.207595095E-1
4.283286830E-1,1.920804679E-1,-7.612987757E-1,1.219812408E-1
4.303300160E-1,1.920804679E-1,-7.490814328E-1,1.232029647E-1
4.323320490E-1,1.890261322E-1,-7.215925455E-1,1.250355542E-1
4.343334150E-1,1.908587366E-1,-6.977687478E-1,1.201486439E-1
4.363347480E-1,1.902478784E-1,-6.849406362E-1,1.195377707E-1
4.383360810E-1,1.871935427E-1,-6.592842340E-1,1.195377707E-1
4.403374470E-1,1.853609532E-1,-6.446234584E-1,1.158725843E-1
4.423387800E-1,1.780305654E-1,-6.165236831E-1,1.091530696E-1
4.443401130E-1,1.835283488E-1,-5.804826617E-1,1.103747934E-1
4.463414460E-1,1.786414385E-1,-5.670436025E-1,1.109856665E-1
4.483427790E-1,1.804740280E-1,-5.316134095E-1,1.054878756E-1
4.503441120E-1,1.810849011E-1,-5.053462386E-1,9.876835346E-2
4.523454450E-1,1.823066324E-1,-4.925180376E-1,9.693576396E-2
4.543470780E-1,1.786414385E-1,-4.534226656E-1,9.693576396E-2
4.563484440E-1,1.810849011E-1,-4.247120023E-1,9.021624923E-2
4.583497770E-1,1.804740280E-1,-4.155490100E-1,8.532932401E-2
4.603511100E-1,1.786414385E-1,-3.886709511E-1,8.166413009E-2
4.623524760E-1,1.755871177E-1,-3.617928624E-1,7.738807797E-2
4.643538090E-1,1.780305654E-1,-3.495755792E-1,7.372288406E-2
4.663551420E-1,1.786414385E-1,-3.263626993E-1,6.333817542E-2
4.683565080E-1,1.780305654E-1,-3.190323114E-1,6.028384715E-2
4.703580740E-1,1.798631549E-1,-3.025389314E-1,6.272730976E-2
4.723594070E-1,1.859718114E-1,-2.811586559E-1,5.295346305E-2
4.743607730E-1,1.841392219E-1,-2.732174098E-1,4.684481025E-2
4.763621060E-1,1.804740280E-1,-2.628327012E-1,4.012529552E-2
4.783644720E-1,1.847500950E-1,-2.536697388E-1,3.646010160E-2
4.803658380E-1,1.853609532E-1,-2.481719553E-1,3.279491141E-2
4.823668710E-1,1.878044158E-1,-2.463393509E-1,2.974058501E-2
4.843682040E-1,1.865826845E-1,-2.408415675E-1,2.302106842E-2
4.863695700E-1,1.853609532E-1,-2.469502091E-1,2.241020277E-2
4.883709030E-1,1.884152889E-1,-2.426741570E-1,1.935587637E-2
4.903722360E-1,1.865826845E-1,-2.500045598E-1,1.569068432E-2
4.923797020E-1,1.871935427E-1,-2.567240596E-1,1.080376282E-2
4.943810350E-1,1.878044158E-1,-2.652761936E-1,5.916840397E-3
4.963823680E-1,1.865826845E-1,-2.701630890E-1,7.138571236E-3
4.983837340E-1,1.823066324E-1,-2.872673273E-1,-3.857003292E-3
5.003850670E-1,1.798631549E-1,-3.104802072E-1,-1.918116759E-4
5.023864000E-1,1.798631549E-1,-3.202540576E-1,-1.413542195E-3
5.043884660E-1,1.737545133E-1,-3.483538628E-1,-8.133059368E-3
5.063897990E-1,1.719219238E-1,-3.758427799E-1,-1.363084652E-2
5.083911320E-1,1.713110507E-1,-3.923361599E-1,-1.424171217E-2
5.103924980E-1,1.682567298E-1,-4.186033607E-1,-1.851776801E-2
5.123938310E-1,1.682567298E-1,-4.625856578E-1,-1.546344254E-2
5.143951640E-1,1.664241403E-1,-4.784681499E-1,-1.973949932E-2
5.163964970E-1,1.590937525E-1,-5.175635219E-1,-2.401555702E-2
5.183978300E-1,1.542068124E-1,-5.358894467E-1,-2.340469137E-2
5.203991630E-1,1.499307752E-1,-5.780391693E-1,-2.951334417E-2
5.224004960E-1,1.474872977E-1,-6.220214963E-1,-2.829161286E-2
5.244018290E-1,1.474872977E-1,-6.427909136E-1,-3.195680305E-2
5.264031950E-1,1.352699995E-1,-6.910492778E-1,-4.111978039E-2
5.284045280E-1,1.340482682E-1,-7.374750376E-1,-3.928718716E-2
5.304058610E-1,1.279396117E-1,-7.570226789E-1,-4.417410865E-2
5.324072270E-1,1.254961491E-1,-8.046701550E-1,-4.967189953E-2
5.344085600E-1,1.157223135E-1,-8.492633700E-1,-4.967189953E-2
5.364098930E-1,1.145005822E-1,-8.743088245E-1,-5.211535469E-2
5.384102260E-1,1.035050079E-1,-9.207345843E-1,-5.761314556E-2
5.404115590E-1,1.041158736E-1,-9.390605688E-1,-5.883487687E-2
5.424131920E-1,9.617462009E-2,-9.836536646E-1,-6.127833575E-2
5.444145580E-1,9.495289624E-2,-1.021527290E0,-6.372179836E-2
5.464158910E-1,8.578991890E-2,-1.039242387E0,-6.616526097E-2
5.484173570E-1,8.334644884E-2,-1.072840095E0,-6.799785793E-2
5.504187230E-1,7.968126237E-2,-1.101550698E0,-7.166304439E-2
5.544142560E-1,6.990741938E-2,-1.146754742E0,-7.716083527E-2
5.564156220E-1,6.563135982E-2,-1.159582853E0,-8.143688738E-2
5.584167880E-1,5.952271074E-2,-1.165691495E0,-8.571294695E-2
5.604181210E-1,5.891184136E-2,-1.179130673E0,-8.510208130E-2
5.624194870E-1,5.524665490E-2,-1.184017420E0,-8.510208130E-2
5.644201200E-1,4.547280818E-2,-1.181574106E0,-9.059987217E-2
5.664211530E-1,4.180761799E-2,-1.176076293E0,-9.548678994E-2
5.684227860E-1,3.692069650E-2,-1.171800137E0,-9.304332733E-2
5.704241190E-1,3.875329345E-2,-1.163248062E0,-9.854111820E-2
5.724254520E-1,3.814242408E-2,-1.147365570E0,-1.015954465E-1
5.744268180E-1,3.508809954E-2,-1.133315682E0,-1.003737077E-1
5.764281510E-1,2.836858109E-2,-1.110102773E0,-1.058714986E-1
5.784291510E-1,2.959031239E-2,-1.080170393E0,-1.095366925E-1
5.804305170E-1,2.653598599E-2,-1.068563938E0,-1.046497673E-1
5.824318500E-1,2.714684978E-2,-1.030690312E0,-1.077040955E-1
5.844331830E-1,2.775771730E-2,-9.952601194E-1,-1.083149537E-1
5.864345160E-1,2.470339090E-2,-9.751015902E-1,-1.138127446E-1
5.884369820E-1,2.592512220E-2,-9.323409796E-1,-1.144236177E-1
5.904383150E-1,2.714684978E-2,-9.085173011E-1,-1.168670729E-1
5.924396480E-1,2.409252524E-2,-8.645349741E-1,-1.174779385E-1
5.944409810E-1,2.287079394E-2,-8.138331771E-1,-1.235865951E-1
5.964423470E-1,2.409252524E-2,-7.869550586E-1,-1.235865951E-1
5.984436800E-1,2.287079394E-2,-7.368641496E-1,-1.278626472E-1
6.004450130E-1,2.409252524E-2,-6.788319945E-1,-1.309169829E-1
6.024463790E-1,2.714684978E-2,-6.531755924E-1,-1.351930201E-1
6.044477120E-1,2.531425655E-2,-5.945325494E-1,-1.406908184E-1
6.064490450E-1,2.470339090E-2,-5.395547152E-1,-1.449668705E-1
6.084502780E-1,2.592512220E-2,-5.145092010E-1,-1.449668705E-1
6.104516110E-1,2.653598599E-2,-4.503683448E-1,-1.504646540E-1
6.124532440E-1,2.959031239E-2,-4.265445769E-1,-1.577950418E-1
6.144546440E-1,2.775771730E-2,-3.740102053E-1,-1.626819670E-1
6.164559770E-1,3.142290935E-2,-3.184214532E-1,-1.675688922E-1
6.184574770E-1,3.264463693E-2,-2.939868569E-1,-1.724558175E-1
6.204585100E-1,2.653598599E-2,-2.408415675E-1,-1.810079217E-1
6.224598430E-1,3.264463693E-2,-1.944158077E-1,-1.858948469E-1
6.244611760E-1,2.714684978E-2,-1.632616669E-1,-1.907817721E-1
6.264628420E-1,2.164906450E-2,-1.235554367E-1,-1.938360929E-1
6.284639080E-1,2.287079394E-2,-7.102102786E-2,-1.981121451E-1
6.304652410E-1,1.920560189E-2,-4.841900989E-2,-2.023882121E-1
6.324666070E-1,2.164906450E-2,-9.934501722E-3,-2.029990703E-1
6.344686400E-1,1.492954604E-2,2.977173962E-2,-2.115511894E-1
6.364696730E-1,1.065349020E-2,5.420634896E-2,-2.146055102E-1
6.384718060E-1,9.431759827E-3,9.146913141E-2,-2.231576294E-1
6.404731390E-1,8.820894174E-3,1.140711457E-1,-2.304880023E-1
6.424805050E-1,2.687807137E-4,1.549991220E-1,-2.359858006E-1
6.444818710E-1,-2.174680121E-3,1.953162253E-1,-2.420944571E-1
6.464832040E-1,-9.529497474E-4,2.148639113E-1,-2.482030988E-1
6.484834040E-1,-8.283332922E-3,2.521266937E-1,-2.530900240E-1
6.504847700E-1,-1.317025442E-2,2.796156406E-1,-2.573660910E-1
6.524861030E-1,-1.439198479E-2,3.028284907E-1,-2.622529864E-1
6.544874360E-1,-1.805717684E-2,3.266522586E-1,-2.708051205E-1
6.564887690E-1,-2.294410020E-2,3.590281010E-1,-2.756920457E-1
6.584901020E-1,-1.744631119E-2,3.700236678E-1,-2.805789411E-1
6.604924680E-1,-2.050063759E-2,3.938474059E-1,-2.830224335E-1
6.624934680E-1,-2.233323269E-2,4.023995399E-1,-2.885202169E-1
6.644947340E-1,-2.355496399E-2,4.250015616E-1,-2.970723212E-1
6.664960340E-1,-1.988977194E-2,4.427166581E-1,-3.019592166E-1
6.684973000E-1,-2.355496399E-2,4.524904788E-1,-3.001266420E-1
6.705040660E-1,-2.233323269E-2,4.695947170E-1,-3.086787760E-1
6.725057990E-1,-1.866804063E-2,4.873098135E-1,-3.129548132E-1
6.745071320E-1,-1.866804063E-2,4.928075969E-1,-3.227286637E-1
6.765084650E-1,-1.805717684E-2,5.001379848E-1,-3.288373053E-1
6.785098310E-1,-1.317025442E-2,5.025814772E-1,-3.343351185E-1
6.805114970E-1,-1.561371610E-2,5.099118352E-1,-3.349459469E-1
6.825125300E-1,-1.378112007E-2,5.007488132E-1,-3.471632600E-1
6.845142630E-1,-1.439198479E-2,4.995270967E-1,-3.532719016E-1
6.865155960E-1,-1.988977194E-2,4.983053803E-1,-3.581588566E-1
6.885169290E-1,-1.866804063E-2,4.958619177E-1,-3.642674983E-1
6.905182950E-1,-1.378112007E-2,4.866989553E-1,-3.679326773E-1
6.925196280E-1,-2.172236890E-2,4.836446345E-1,-3.758739233E-1
6.945202610E-1,-2.050063759E-2,4.683730006E-1,-3.783174157E-1
6.965219270E-1,-1.927890815E-2,4.573774040E-1,-3.825934529E-1
6.985228270E-1,-3.210707754E-2,4.421057701E-1,-3.856477737E-1
7.005241600E-1,-3.699399903E-2,4.268341362E-1,-3.941998780E-1
7.045208260E-1,-4.127005860E-2,3.901822269E-1,-4.033628702E-1
7.065221590E-1,-4.188092053E-2,3.651367426E-1,-4.051954746E-1
7.085235250E-1,-4.554611072E-2,3.535303473E-1,-4.094715416E-1
7.105248580E-1,-5.226562917E-2,3.297065794E-1,-4.143584669E-1
7.125261910E-1,-5.531995744E-2,3.150458038E-1,-4.149692953E-1
7.145275570E-1,-6.448293477E-2,2.887786031E-1,-4.229105413E-1
7.165288900E-1,-6.814812124E-2,2.619005442E-1,-4.277974963E-1
7.185302230E-1,-7.425678521E-2,2.490723580E-1,-4.265757501E-1
7.205305560E-1,-8.158716559E-2,2.234160155E-1,-4.308518171E-1
7.225322220E-1,-8.830668032E-2,1.977596879E-1,-4.290192127E-1
7.245336220E-1,-9.563706070E-2,1.867641211E-1,-4.314626753E-1
7.265350220E-1,-1.072435006E-1,1.635512263E-1,-4.332952499E-1
7.285364220E-1,-1.182390749E-1,1.348405629E-1,-4.290192127E-1
7.325332880E-1,-1.310672462E-1,1.036864296E-1,-4.271866083E-1
7.345346210E-1,-1.414519548E-1,9.574518353E-2,-4.229105413E-1
7.365359540E-1,-1.493932009E-1,7.192143798E-2,-4.192453623E-1
7.385372870E-1,-1.640539765E-1,5.176289007E-2,-4.161910415E-1
7.405386200E-1,-1.695517600E-1,4.137817770E-2,-4.137475789E-1
7.425402860E-1,-1.799364686E-1,2.366308868E-2,-4.119149745E-1
7.445412520E-1,-1.854342520E-1,2.282803645E-3,-4.070280790E-1
7.465425850E-1,-1.890994459E-1,-5.658444948E-3,-4.033628702E-1
7.485439510E-1,-2.025384754E-1,-2.215180546E-2,-3.978650868E-1
7.505452840E-1,-2.013167590E-1,-4.169949517E-2,-3.978650868E-1
7.525466170E-1,-2.055928111E-1,-4.780814797E-2,-3.978650868E-1
7.545479830E-1,-2.147557884E-1,-6.430150568E-2,-3.929781616E-1
7.565493160E-1,-2.208644450E-1,-7.835140824E-2,-3.911455572E-1
7.585509490E-1,-2.165883780E-1,-8.262746781E-2,-3.899238408E-1
7.605523150E-1,-2.257513553E-1,-9.362304211E-2,-3.825934529E-1
7.625536480E-1,-2.226970345E-1,-9.667737037E-2,-3.801499903E-1
7.645549810E-1,-2.245296389E-1,-1.033968776E-1,-3.795391321E-1
7.665563470E-1,-2.208644450E-1,-1.107272655E-1,-3.728196025E-1
7.685576800E-1,-2.220861614E-1,-1.095055416E-1,-3.715978563E-1
7.705590130E-1,-2.226970345E-1,-1.150033250E-1,-3.667109609E-1
7.725603790E-1,-2.214753032E-1,-9.973169118E-2,-3.612131774E-1
7.745617120E-1,-2.233078927E-1,-9.850996733E-2,-3.587697148E-1
7.765630450E-1,-2.190318406E-1,-9.240130335E-2,-3.569371104E-1
7.785644110E-1,-2.165883780E-1,-8.446005732E-2,-3.557153940E-1
7.805657440E-1,-2.086471468E-1,-7.835140824E-2,-3.520502150E-1
7.825667770E-1,-2.117014676E-1,-6.918843091E-2,-3.477741480E-1
7.845681430E-1,-2.104797363E-1,-6.369064003E-2,-3.477741480E-1
7.865694760E-1,-2.055928111E-1,-4.658641294E-2,-3.465524018E-1
7.885706090E-1,-1.982624233E-1,-2.764959261E-2,-3.404437602E-1
7.905719750E-1,-1.964298189E-1,-1.909748092E-2,-3.380002975E-1
7.925733080E-1,-1.909320354E-1,4.502076772E-4,-3.355568349E-1
7.945746410E-1,-1.836016476E-1,1.999789663E-2,-3.318916261E-1
7.965756740E-1,-1.842125207E-1,3.038260527E-2,-3.331133723E-1
7.985767400E-1,-1.762712747E-1,3.832385316E-2,-3.245612383E-1
8.005780730E-1,-1.689408869E-1,5.359548703E-2,-3.178417385E-1
8.025794060E-1,-1.701626331E-1,6.336932629E-2,-3.160091639E-1
8.045807390E-1,-1.652756929E-1,7.680836320E-2,-3.074570298E-1
8.065820720E-1,-1.536692679E-1,8.658220619E-2,-3.062352836E-1
8.085834050E-1,-1.506149322E-1,9.024740010E-2,-3.025701046E-1
8.105847380E-1,-1.457280070E-1,9.941037744E-2,-2.927962542E-1
8.125861040E-1,-1.469497383E-1,1.061298996E-1,-2.897419333E-1
8.145875700E-1,-1.383976340E-1,1.061298996E-1,-2.860767543E-1
8.165889030E-1,-1.347324401E-1,1.128494143E-1,-2.805789411E-1
8.185899690E-1,-1.322889775E-1,1.159037426E-1,-2.763029039E-1
8.205913020E-1,-1.286237836E-1,1.201797947E-1,-2.689725459E-1
8.225926350E-1,-1.194608063E-1,1.244558468E-1,-2.634747326E-1
8.245940010E-1,-1.206825376E-1,1.275101751E-1,-2.573660910E-1
8.265953340E-1,-1.139630228E-1,1.293427795E-1,-2.537008822E-1
8.285966670E-1,-1.115195602E-1,1.354514360E-1,-2.512574196E-1
8.305980330E-1,-1.090760976E-1,1.397274733E-1,-2.488139719E-1
8.325993660E-1,-1.090760976E-1,1.403383464E-1,-2.396509796E-1
8.346006990E-1,-1.029674485E-1,1.446144134E-1,-2.353749275E-1
8.366027650E-1,-9.808052331E-2,1.495013237E-1,-2.262119651E-1
8.386071980E-1,-9.563706070E-2,1.507230550E-1,-2.164381146E-1
8.406085310E-1,-9.502620250E-2,1.507230550E-1,-2.127729207E-1
8.426101970E-1,-8.464148641E-2,1.568317115E-1,-2.005556226E-1
8.446115300E-1,-8.341976255E-2,1.684381515E-1,-1.889491677E-1
8.466128630E-1,-7.975456864E-2,1.690490097E-1,-1.810079217E-1
8.486144290E-1,-6.875899434E-2,1.690490097E-1,-1.669580191E-1
8.506157620E-1,-7.242418826E-2,1.837097704E-1,-1.571841687E-1
8.526170950E-1,-6.692639738E-2,1.898184419E-1,-1.541298479E-1
8.546181610E-1,-6.570466608E-2,1.922619045E-1,-1.382473558E-1
8.566198270E-1,-6.020687893E-2,1.989814192E-1,-1.309169829E-1
8.586214270E-1,-6.142860651E-2,2.057009339E-1,-1.180888042E-1
8.606227930E-1,-5.104389787E-2,2.148639113E-1,-1.015954465E-1
8.626239260E-1,-4.798957333E-2,2.197508216E-1,-9.304332733E-2
8.646252590E-1,-4.921130463E-2,2.319681346E-1,-7.532823831E-2
8.666266250E-1,-4.921130463E-2,2.435745746E-1,-5.700227991E-2
8.686279580E-1,-4.554611072E-2,2.478506267E-1,-4.967189953E-2
8.706292910E-1,-4.188092053E-2,2.649548650E-1,-3.012420796E-2
8.726306240E-1,-4.127005860E-2,2.838917077E-1,-1.485257689E-2
8.746318240E-1,-3.577227145E-2,2.936655283E-1,-5.078733433E-3
8.766331570E-1,-3.332880884E-2,3.052719831E-1,1.630154997E-2
8.786344900E-1,-3.088534810E-2,3.187110126E-1,3.462750465E-2
8.806380230E-1,-2.599842474E-2,3.229870498E-1,4.684481025E-2
8.826392890E-1,-2.599842474E-2,3.376478255E-1,6.333817542E-2
8.846406220E-1,-2.416582778E-2,3.413130045E-1,6.944682449E-2
8.866420880E-1,-1.561371610E-2,3.547520339E-1,9.510316700E-2
8.886434540E-1,-1.622457989E-2,3.724671304E-1,1.170943156E-1
8.906447870E-1,-8.894198574E-3,3.761323094E-1,1.256464273E-1
8.926460200E-1,-2.174680121E-3,3.895713687E-1,1.549679637E-1
8.946473860E-1,5.155702587E-3,4.091190398E-1,1.751265079E-1
8.966480190E-1,1.126435492E-2,4.140059948E-1,1.916198730E-1
9.006476180E-1,1.798387244E-2,4.408840537E-1,2.362130433E-1
9.026489510E-1,1.676214300E-2,4.494361579E-1,2.496520728E-1
9.046502840E-1,2.470339090E-2,4.592100084E-1,2.716432214E-1
9.066516500E-1,2.531425655E-2,4.677621126E-1,2.838605344E-1
9.086529830E-1,3.447723389E-2,4.805903137E-1,3.119603395E-1
9.106543160E-1,4.302934557E-2,4.897532761E-1,3.394492865E-1
9.126556820E-1,4.913800210E-2,4.964727759E-1,3.473905027E-1
9.146573150E-1,5.219232664E-2,5.123552680E-1,3.730468452E-1
9.166586480E-1,5.830097944E-2,5.245725513E-1,3.944271207E-1
9.186600140E-1,5.891184136E-2,5.288486481E-1,4.078661799E-1
9.206613470E-1,6.990741938E-2,5.447311401E-1,4.298573434E-1
9.226628800E-1,7.357260585E-2,5.563375950E-1,4.512376189E-1
9.246642460E-1,7.968126237E-2,5.612244606E-1,4.585680068E-1
9.266655790E-1,8.334644884E-2,5.807722211E-1,4.805591404E-1
9.286669120E-1,9.250943363E-2,5.923786163E-1,4.909438491E-1
9.306682780E-1,9.922894835E-2,5.942112207E-1,5.117132664E-1
9.326696110E-1,1.028941423E-1,6.052067876E-1,5.263740420E-1
9.346709440E-1,1.035050079E-1,6.107046008E-1,5.349261761E-1
9.366723100E-1,1.132788509E-1,6.186457872E-1,5.532521009E-1
9.386736430E-1,1.199983656E-1,6.235327721E-1,5.660802722E-1
9.426749090E-1,1.303830743E-1,6.369718313E-1,5.892931223E-1
9.446762420E-1,1.364917308E-1,6.449130177E-1,6.002886891E-1
9.466774420E-1,1.401569247E-1,6.443021894E-1,6.045647860E-1
9.486787750E-1,1.474872977E-1,6.449130177E-1,6.118951440E-1
9.506801080E-1,1.572611481E-1,6.443021894E-1,6.137278080E-1
9.526815740E-1,1.566502899E-1,6.485782266E-1,6.180038452E-1
9.546829070E-1,1.639806628E-1,6.473565102E-1,6.253342032E-1
9.566842400E-1,1.688675880E-1,6.430804729E-1,6.228907704E-1
9.586856060E-1,1.719219238E-1,6.461347938E-1,6.259450912E-1
9.606869390E-1,1.816957593E-1,6.406369805E-1,6.253342032E-1
9.626882720E-1,1.804740280E-1,6.455239058E-1,6.271668077E-1
9.646899050E-1,1.871935427E-1,6.461347938E-1,6.235015988E-1
9.666912380E-1,1.945239305E-1,6.461347938E-1,6.155603528E-1
9.686925710E-1,1.957456619E-1,6.479673386E-1,6.118951440E-1
9.706939370E-1,2.030760348E-1,6.540760398E-1,6.002886891E-1
9.726952700E-1,2.036869079E-1,6.687367558E-1,5.911257267E-1
9.746966030E-1,2.042977810E-1,6.772888899E-1,5.844062567E-1
9.766979690E-1,2.116281539E-1,6.907278895E-1,5.721889138E-1
9.786993020E-1,2.128498852E-1,6.950039864E-1,5.636367798E-1
9.807006350E-1,2.177367955E-1,7.237146497E-1,5.422565341E-1
9.827020010E-1,2.171259522E-1,7.432623506E-1,5.233197212E-1
9.847033340E-1,2.220128626E-1,7.536470294E-1,5.153784752E-1
9.867046670E-1,2.238454521E-1,7.915207148E-1,4.958307743E-1
9.887060330E-1,2.287323773E-1,8.098466992E-1,4.775048196E-1
9.907073660E-1,2.305649668E-1,8.300051689E-1,4.677309692E-1
9.927086990E-1,2.385062277E-1,8.684897423E-1,4.481832981E-1
9.947100650E-1,2.415605485E-1,9.026981592E-1,4.292464554E-1
9.967113980E-1,2.458366156E-1,9.228567481E-1,4.188617468E-1
9.987127310E-1,2.495017946E-1,9.717259407E-1,3.950380087E-1
1.000714097E0,2.598865032E-1,1.009599566E0,3.803772330E-1
1.002714730E0,2.611082494E-1,1.036477685E0,3.693816662E-1
1.004716363E0,2.617191076E-1,1.092066407E0,3.443361819E-1
1.006717729E0,2.635516822E-1,1.124442220E0,3.321188986E-1
1.008719062E0,2.690494955E-1,1.180641890E0,3.101277351E-1
1.010720395E0,2.708820701E-1,1.243561029E0,2.924126387E-1
1.012721728E0,2.721038163E-1,1.277158618E0,2.783627212E-1
1.014723061E0,2.702712119E-1,1.344964623E0,2.539281249E-1
1.016724394E0,2.611082494E-1,1.423155427E0,2.343804538E-1
1.018725727E0,2.598865032E-1,1.456752896E0,2.246066034E-1
1.020727060E0,2.556104660E-1,1.531278610E0,2.056697756E-1
1.022728426E0,2.476692051E-1,1.611912727E0,1.873438060E-1
1.024729492E0,2.415605485E-1,1.647342920E0,1.781808436E-1
1.026730825E0,2.366736233E-1,1.722479343E0,1.653526723E-1
1.028732191E0,2.293432504E-1,1.760963917E0,1.574114263E-1
1.030733524E0,2.171259522E-1,1.839154482E0,1.403071880E-1
1.032734857E0,2.049086243E-1,1.916123629E0,1.293116212E-1
1.034736223E0,2.024651766E-1,1.944223404E0,1.219812408E-1
1.036737556E0,1.841392219E-1,2.018138170E0,1.170943156E-1
1.038739956E0,1.707001776E-1,2.092663527E0,1.109856665E-1
1.040741322E0,1.639806628E-1,2.120152473E0,1.054878756E-1
1.042742655E0,1.487090290E-1,2.177573919E0,1.024335474E-1
1.044743988E0,1.322156638E-1,2.229497671E0,9.327057004E-2
1.046745354E0,1.248852909E-1,2.249045134E0,9.082710743E-2
1.048746687E0,1.108353883E-1,2.281421185E0,8.349672705E-2
1.050748020E0,9.067683667E-2,2.307688236E0,7.799893618E-2
1.052749386E0,8.456818759E-2,2.316851377E0,7.494460791E-2
1.054750719E0,6.929655373E-2,2.322959900E0,6.272730976E-2
1.056752052E0,6.196616963E-2,2.323570728E0,5.967298150E-2
1.058753118E0,3.936415538E-2,2.313185930E0,4.379048571E-2
1.060754451E0,2.470339090E-2,2.293027639E0,3.707096726E-2
1.062755784E0,1.187522057E-2,2.283253670E0,3.462750465E-2
1.064756517E0,2.101376420E-3,2.243547440E0,2.546452917E-2
1.066757850E0,-1.927890815E-2,2.197121620E0,1.996674202E-2
1.068759183E0,-3.027448058E-2,2.169021845E0,1.385808829E-2
1.070760283E0,-4.310265183E-2,2.115876436E0,1.019289810E-2
1.072761616E0,-5.715255439E-2,2.049292326E0,2.251649275E-3
1.074762949E0,-6.570466608E-2,2.016305447E0,4.190535401E-4
1.076764015E0,-8.708494902E-2,1.934449553E0,-1.179825142E-2
1.078765348E0,-9.258273244E-2,1.892910719E0,-8.743925020E-3
1.080766681E0,-9.808052331E-2,1.793950558E0,-1.485257689E-2
1.082774414E0,-1.133521572E-1,1.694379568E0,-1.790690422E-2
1.084775747E0,-1.194608063E-1,1.646121264E0,-1.179825142E-2
1.086777080E0,-1.274020523E-1,1.533111095E0,-1.363084652E-2
1.088778413E0,-1.414519548E-1,1.422544599E0,-1.118738670E-2
1.090779746E0,-1.481714845E-1,1.370010138E0,-9.354790673E-3
1.092781112E0,-1.555018574E-1,1.261886954E0,-1.179825142E-2
1.094782445E0,-1.616104990E-1,1.164759398E0,-8.026768919E-4
1.096783778E0,-1.658865660E-1,1.117722750E0,-1.413542195E-3
1.098784078E0,-1.695517600E-1,1.037699342E0,-1.363084652E-2
1.100785411E0,-1.713843495E-1,1.005934358E0,-1.424171217E-2
1.102786744E0,-1.726060808E-1,9.564543366E-1,-2.645901591E-2
1.104788110E0,-1.671082973E-1,9.338523149E-1,-3.623285890E-2
1.106789443E0,-1.719952226E-1,9.344632030E-1,-4.111978039E-2
1.108790776E0,-1.658865660E-1,9.417935610E-1,-4.845016450E-2
1.110792142E0,-1.640539765E-1,9.711151123E-1,-4.967189953E-2
1.112793475E0,-1.585561782E-1,9.931061864E-1,-4.906103015E-2
1.114794808E0,-1.646648347E-1,1.047473311E0,-5.150449276E-2
1.116796174E0,-1.707734764E-1,1.134216070E0,-6.127833575E-2
1.118798140E0,-1.646648347E-1,1.178198338E0,-6.005660444E-2
1.120799473E0,-1.695517600E-1,1.296095371E0,-6.799785793E-2
1.122800839E0,-1.756604165E-1,1.426209688E0,-7.349564135E-2
1.124802505E0,-1.781038642E-1,1.495237470E0,-8.265862614E-2
1.126803838E0,-1.836016476E-1,1.640012622E0,-8.815640956E-2
1.128805204E0,-1.842125207E-1,1.718814135E0,-8.876727521E-2
1.130806804E0,-1.878777146E-1,1.867254376E0,-9.793025255E-2
1.132808137E0,-1.909320354E-1,2.021192312E0,-1.040389016E-1
1.134809170E0,-1.915429085E-1,2.090831041E0,-1.083149537E-1
1.136811503E0,-1.970406920E-1,2.226443052E0,-1.150344759E-1
1.138812836E0,-2.055928111E-1,2.345561743E0,-1.217539981E-1
1.140813902E0,-2.025384754E-1,2.402372360E0,-1.205322668E-1
1.144809868E0,-2.007058859E-1,2.581356049E0,-1.376364827E-1
1.146811234E0,-1.994841546E-1,2.616175175E0,-1.406908184E-1
1.148812234E0,-1.921537817E-1,2.670542240E0,-1.486320645E-1
1.150814300E0,-1.823799312E-1,2.713913679E0,-1.498537958E-1
1.152815633E0,-1.701626331E-1,2.729796171E0,-1.565733254E-1
1.154816966E0,-1.536692679E-1,2.757285118E0,-1.626819670E-1
1.156818299E0,-1.457280070E-1,2.768891573E0,-1.657363027E-1
1.158819399E0,-1.267911941E-1,2.770724058E0,-1.694014966E-1
1.160820732E0,-1.151847541E-1,2.752398252E0,-1.718449444E-1
1.162822098E0,-1.060217768E-1,2.745678663E0,-1.797861904E-1
1.164823098E0,-9.136100858E-2,2.702918053E0,-1.828405112E-1
1.166824431E0,-7.853283733E-2,2.661989927E0,-1.816187948E-1
1.168825797E0,-6.998071820E-2,2.631446838E0,-1.865057051E-1
1.170827130E0,-6.142860651E-2,2.564251661E0,-1.889491677E-1
1.172828463E0,-5.593081936E-2,2.486671925E0,-1.920034885E-1
1.174829829E0,-5.287649482E-2,2.445132732E0,-1.950578243E-1
1.176831162E0,-4.432438314E-2,2.351670742E0,-1.938360929E-1
1.178832162E0,-4.004832357E-2,2.307688236E0,-1.926143616E-1
1.180833528E0,-3.699399903E-2,2.211782455E0,-1.913926452E-1
1.182834861E0,-3.882659599E-2,2.106102705E0,-1.846731156E-1
1.184836194E0,-4.249178618E-2,2.063342094E0,-1.846731156E-1
1.186837560E0,-3.577227145E-2,1.960716844E0,-1.810079217E-1
1.188838893E0,-3.943746164E-2,1.877028227E0,-1.822296530E-1
1.190840226E0,-3.943746164E-2,1.837321997E0,-1.767318696E-1
1.192841592E0,-3.882659599E-2,1.765850663E0,-1.694014966E-1
1.194843258E0,-3.943746164E-2,1.712094545E0,-1.608493626E-1
1.196843891E0,-4.371351749E-2,1.688270926E0,-1.608493626E-1
1.198845257E0,-5.226562917E-2,1.649786353E0,-1.461886019E-1
1.200846890E0,-5.104389787E-2,1.638790727E0,-1.425234079E-1
1.202848223E0,-5.470909178E-2,1.618021369E0,-1.284735054E-1
1.204851089E0,-6.020687893E-2,1.615577936E0,-1.223648638E-1
1.206852922E0,-6.020687893E-2,1.621686578E0,-1.150344759E-1
1.208854588E0,-6.020687893E-2,1.633292913E0,-1.028171703E-1
1.210855221E0,-6.448293477E-2,1.657116652E0,-9.609765559E-2
1.212856554E0,-6.203947589E-2,1.674831748E0,-9.243246168E-2
1.214857887E0,-6.387206912E-2,1.713316441E0,-7.532823831E-2
1.216859253E0,-6.509380043E-2,1.757298708E0,-6.983045489E-2
1.218860819E0,-6.814812124E-2,1.782954931E0,-6.066747382E-2
1.220862152E0,-6.265033782E-2,1.826937199E0,-5.089362711E-2
1.222863485E0,-5.776341632E-2,1.882526040E0,-4.600670561E-2
1.224865151E0,-6.142860651E-2,1.903906345E0,-3.378940374E-2
1.226866484E0,-6.081774458E-2,1.952775478E0,-2.462642081E-2
1.228867817E0,-5.654168874E-2,1.977820992E0,-2.035036497E-2
1.230869150E0,-5.837428197E-2,2.016305447E0,-8.133059368E-3
1.232870516E0,-5.348736048E-2,2.062731266E0,4.084245302E-3
1.234871849E0,-5.226562917E-2,2.081057072E0,5.305975210E-3
1.236873182E0,-4.493524879E-2,2.109767914E0,1.630154997E-2
1.238874548E0,-3.943746164E-2,2.136035204E0,2.363193408E-2
1.240875881E0,-4.554611072E-2,2.146420002E0,2.790798992E-2
1.242877214E0,-4.004832357E-2,2.164134979E0,3.707096726E-2
1.244878580E0,-2.722015604E-2,2.176352262E0,4.745567590E-2
1.246879913E0,-2.233323269E-2,2.175741434E0,4.989913851E-2
1.248881246E0,-1.988977194E-2,2.175130367E0,5.539692566E-2
1.250882612E0,-1.683544554E-2,2.174519539E0,5.906211957E-2
1.252883945E0,-1.011592895E-2,2.169632912E0,6.639250368E-2
1.254885345E0,-4.618141335E-3,2.152528524E0,7.189028710E-2
1.256886711E0,2.101376420E-3,2.141532898E0,7.311201841E-2
1.258888044E0,6.988298614E-3,2.115265608E0,8.044239879E-2
1.260889377E0,1.126435492E-2,2.089609385E0,7.616634667E-2
1.262890410E0,1.492954604E-2,2.073116064E0,8.227499574E-2
1.264890543E0,1.187522057E-2,2.042572737E0,7.738807797E-2
1.266891376E0,1.920560189E-2,2.004088163E0,8.594018221E-2
1.268892742E0,2.103819884E-2,1.982707858E0,8.410759270E-2
1.270894075E0,1.554041170E-2,1.942390919E0,7.616634667E-2
1.272895408E0,1.554041170E-2,1.914291024E0,7.311201841E-2
1.274896774E0,1.859473810E-2,1.867254376E0,7.738807797E-2
1.276898107E0,1.370781567E-2,1.817774296E0,7.372288406E-2
1.278899440E0,1.676214300E-2,1.792117953E0,7.189028710E-2
1.280900806E0,1.737300679E-2,1.726755381E0,6.883595884E-2
1.282902139E0,2.287079394E-2,1.672388434E0,6.394904107E-2
1.284903472E0,2.225993015E-2,1.646732092E0,6.089471281E-2
1.286904838E0,2.225993015E-2,1.586256385E0,5.722952262E-2
1.288906171E0,2.042733319E-2,1.536165357E0,4.867740721E-2
1.290907504E0,2.164906450E-2,1.509287357E0,4.806654528E-2
1.292908837E0,2.836858109E-2,1.454920411E0,4.195788875E-2
1.294910170E0,2.836858109E-2,1.418268442E0,4.134702682E-2
1.296911503E0,3.264463693E-2,1.394444704E0,4.012529552E-2
1.298912836E0,3.264463693E-2,1.353516698E0,3.279491141E-2
1.300914169E0,3.325550631E-2,1.336412430E0,3.035145067E-2
1.302915535E0,3.203377500E-2,1.307090998E0,2.790798992E-2
1.304916535E0,3.325550631E-2,1.287543297E0,2.485366166E-2
1.306917868E0,3.630983084E-2,1.277769446E0,2.607539296E-2
1.308919234E0,3.936415538E-2,1.266773820E0,1.813414507E-2
1.310920567E0,4.180761799E-2,1.260054350E0,1.385808829E-2
1.312921900E0,3.447723389E-2,1.258832693E0,1.813414507E-2
1.314923200E0,4.364021122E-2,1.258832693E0,1.630154997E-2
1.316924233E0,4.302934557E-2,1.266773820E0,1.019289810E-2
1.318925533E0,4.608367383E-2,1.264941335E0,1.080376282E-2
1.320926899E0,4.119675234E-2,1.274104238E0,1.019289810E-2
1.322928565E0,3.692069650E-2,1.282045484E0,1.019289810E-2
1.324929898E0,4.241848364E-2,1.294873714E0,1.202549320E-2
1.326931264E0,3.875329345E-2,1.300371408E0,1.263635792E-2
1.328932597E0,3.508809954E-2,1.316253901E0,1.202549320E-2
1.330934630E0,3.264463693E-2,1.326027870E0,1.019289810E-2
1.332935996E0,3.386636823E-2,1.347408056E0,1.691241376E-2
1.334937329E0,3.203377500E-2,1.348629713E0,1.630154997E-2
1.336938662E0,2.714684978E-2,1.372453451E0,1.263635792E-2
1.338940028E0,2.775771730E-2,1.381616592E0,1.263635792E-2
1.340941361E0,1.981646940E-2,1.387114286E0,1.874501072E-2
1.342942694E0,2.042733319E-2,1.404829383E0,1.874501072E-2
1.344944060E0,1.554041170E-2,1.416435838E0,1.935587637E-2
1.346945393E0,1.309695095E-2,1.424377084E0,1.996674202E-2
1.348946726E0,1.309695095E-2,1.439037800E0,1.874501072E-2
1.350948792E0,6.988298614E-3,1.445146441E0,2.424279787E-2
1.352950125E0,6.988298614E-3,1.452476978E0,2.241020277E-2
1.354951458E0,2.712241607E-3,1.461029053E0,2.302106842E-2
1.356952824E0,3.323107027E-3,1.462250710E0,2.485366166E-2
1.358954157E0,-3.420845314E-4,1.462861538E0,2.241020277E-2
1.360959523E0,2.687807137E-4,1.465915918E0,2.363193408E-2
1.362960856E0,-3.420845314E-4,1.462861538E0,2.241020277E-2
1.364962522E0,8.796459297E-4,1.457363725E0,2.179933712E-2
1.366965122E0,3.323107027E-3,1.449422598E0,2.057760581E-2
1.368966455E0,1.490511233E-3,1.445757270E0,2.118847333E-2
1.370967788E0,8.796459297E-4,1.433539987E0,1.446895394E-2
1.372969154E0,1.490511233E-3,1.435372710E0,1.691241376E-2
1.374970487E0,6.988298614E-3,1.422544599E0,2.179933712E-2
1.376972120E0,1.004262455E-2,1.410327196E0,1.630154997E-2
1.378973520E0,7.599163335E-3,1.407272816E0,2.118847333E-2
1.380974853E0,1.248608623E-2,1.396888137E0,1.935587637E-2
1.382976186E0,1.004262455E-2,1.393223047E0,1.874501072E-2
1.384977552E0,8.210028522E-3,1.388946891E0,1.935587637E-2
1.386978885E0,7.599163335E-3,1.386503458E0,2.057760581E-2
1.388980218E0,6.988298614E-3,1.380394816E0,2.241020277E-2
1.390980884E0,6.377433427E-3,1.381616592E0,2.057760581E-2
1.392982217E0,5.155702587E-3,1.375507951E0,1.996674202E-2
1.394983550E0,3.933972213E-3,1.376729608E0,2.057760581E-2
1.396984916E0,8.796459297E-4,1.365123153E0,2.363193408E-2
1.398989982E0,-9.529497474E-4,1.364512324E0,2.118847333E-2
1.400991315E0,-4.618141335E-3,1.357181907E0,2.607539296E-2
1.402992681E0,-7.061602082E-3,1.349851608E0,2.241020277E-2
1.404994014E0,-1.011592895E-2,1.345575452E0,2.546452917E-2
1.406995347E0,-9.505063295E-3,1.340688586E0,2.546452917E-2
1.408997413E0,-7.061602082E-3,1.326638699E0,2.851885371E-2
1.410998046E0,-8.894198574E-3,1.325416923E0,3.157318011E-2
1.412999379E0,-6.450736895E-3,1.321140885E0,3.401664272E-2
1.415000745E0,-6.450736895E-3,1.311977863E0,3.401664272E-2
1.417002078E0,-8.894198574E-3,1.302814960E0,3.340577707E-2
1.419003411E0,-8.894198574E-3,1.291208506E0,3.584923968E-2
1.423001977E0,-3.396410728E-3,1.267995596E0,4.195788875E-2
1.425003310E0,-6.450736895E-3,1.259443521E0,4.684481025E-2
1.427003410E0,-7.061602082E-3,1.240506768E0,4.867740721E-2
1.429004610E0,-1.011592895E-2,1.235008955E0,4.989913851E-2
1.431005943E0,-3.396410728E-3,1.214239478E0,5.661865696E-2
1.433007276E0,-2.785545541E-3,1.203243852E0,5.906211957E-2
1.435008609E0,-9.529497474E-4,1.193470001E0,5.661865696E-2
1.437009942E0,-2.174680121E-3,1.172700524E0,6.333817542E-2
1.439011275E0,-5.229006521E-3,1.162315965E0,6.822510064E-2
1.441012608E0,-2.785545541E-3,1.155596495E0,7.066855580E-2
1.443013941E0,-4.618141335E-3,1.137881398E0,7.555548102E-2
1.445015274E0,-2.174680121E-3,1.137270331E0,7.860980183E-2
1.447016607E0,-9.505063295E-3,1.123831391E0,8.349672705E-2
1.449017973E0,-6.450736895E-3,1.118944407E0,8.349672705E-2
1.451019306E0,-8.894198574E-3,1.112835765E0,8.899451792E-2
1.453020639E0,-1.255938876E-2,1.110392332E0,9.937922657E-2
1.455022005E0,-1.561371610E-2,1.099396706E0,1.030444205E-1
1.457023338E0,-1.988977194E-2,1.096342444E0,1.060987413E-1
1.461022304E0,-2.416582778E-2,1.083514333E0,1.152617186E-1
1.463023637E0,-2.905275114E-2,1.080459952E0,1.158725843E-1
1.465024970E0,-3.577227145E-2,1.066410065E0,1.207595095E-1
1.467026336E0,-4.371351749E-2,1.056636214E0,1.219812408E-1
1.469026969E0,-4.493524879E-2,1.047473311E0,1.268681586E-1
1.471028302E0,-5.104389787E-2,1.027314663E0,1.238138378E-1
1.473029668E0,-5.226562917E-2,1.011432171E0,1.262573004E-1
1.475031001E0,-5.654168874E-2,9.863867164E-1,1.311442107E-1
1.477032334E0,-6.570466608E-2,9.527891278E-1,1.287007630E-1
1.479033367E0,-6.265033782E-2,9.393500686E-1,1.311442107E-1
1.481034700E0,-6.875899434E-2,8.935351968E-1,1.274790317E-1
1.483036133E0,-7.486764342E-2,8.519963622E-1,1.238138378E-1
1.485037499E0,-7.731110603E-2,8.306161165E-1,1.207595095E-1
1.487038832E0,-7.914370298E-2,7.854120731E-1,1.158725843E-1
1.489040298E0,-8.464148641E-2,7.505927086E-1,1.164834499E-1
1.491041664E0,-8.036543429E-2,7.176060081E-1,1.146508530E-1
1.493042997E0,-8.036543429E-2,6.797323823E-1,1.073204726E-1
1.495044330E0,-7.853283733E-2,6.577411890E-1,1.030444205E-1
1.497045696E0,-7.914370298E-2,6.223110557E-1,1.006009504E-1
1.499047029E0,-7.853283733E-2,5.899351835E-1,1.006009504E-1
1.501048362E0,-8.097629249E-2,5.783287287E-1,9.143797308E-2
1.503049728E0,-7.547850907E-2,5.630571246E-1,8.960537612E-2
1.505051061E0,-7.975456864E-2,5.538941026E-1,8.532932401E-2
1.507052394E0,-8.036543429E-2,5.538941026E-1,8.410759270E-2
1.509053727E0,-8.097629249E-2,5.630571246E-1,7.677720487E-2
1.511055060E0,-7.975456864E-2,5.874916911E-1,7.677720487E-2
1.513056393E0,-7.853283733E-2,6.064285040E-1,7.616634667E-2
1.515057726E0,-8.097629249E-2,6.436913013E-1,6.944682449E-2
1.517059059E0,-7.670024037E-2,6.748454571E-1,6.761422753E-2
1.519060425E0,-7.914370298E-2,7.353211045E-1,6.761422753E-2
1.521061758E0,-7.670024037E-2,8.061814308E-1,6.333817542E-2
1.523063091E0,-7.608937472E-2,8.391681910E-1,6.150557846E-2
1.525064457E0,-7.364591211E-2,9.155263901E-1,6.272730976E-2
1.527065790E0,-7.242418826E-2,9.882193208E-1,5.539692566E-2
1.529067123E0,-7.364591211E-2,1.024871230E0,5.661865696E-2
1.531068489E0,-7.670024037E-2,1.087790251E0,4.806654528E-2
1.533069822E0,-7.425678521E-2,1.138492227E0,4.073616117E-2
1.535071155E0,-7.242418826E-2,1.159872413E0,4.012529552E-2
1.537072521E0,-7.547850907E-2,1.195913434E0,2.974058501E-2
1.539074187E0,-7.120245695E-2,1.216682911E0,2.424279787E-2
1.541075520E0,-6.998071820E-2,1.227067590E0,2.607539296E-2
1.543076886E0,-6.875899434E-2,1.239284873E0,2.241020277E-2
1.545078219E0,-6.875899434E-2,1.238063216E0,1.507981960E-2
1.547079552E0,-6.753726304E-2,1.235008955E0,1.507981960E-2
1.549080918E0,-6.265033782E-2,1.220958948E0,1.080376282E-2
1.551082251E0,-6.020687893E-2,1.216071963E0,1.019289810E-2
1.553083584E0,-5.715255439E-2,1.192248344E0,8.360302076E-3
1.555084950E0,-6.020687893E-2,1.165370226E0,1.141462848E-2
1.557086283E0,-5.898514763E-2,1.152542114E0,1.324722357E-2
1.559087616E0,-5.837428197E-2,1.120777130E0,9.582032450E-3
1.561088982E0,-5.715255439E-2,1.099396706E0,1.202549320E-2
1.563092782E0,-6.081774458E-2,1.088401198E0,1.080376282E-2
1.565094115E0,-6.020687893E-2,1.060912251E0,1.996674202E-2
1.567095481E0,-6.326120347E-2,1.050527573E0,1.630154997E-2
1.569096814E0,-6.448293477E-2,1.034644961E0,2.546452917E-2
1.571098847E0,-6.387206912E-2,1.023038626E0,3.646010160E-2
1.573100213E0,-6.448293477E-2,1.016319036E0,3.951442987E-2
1.575101546E0,-6.081774458E-2,1.003490925E0,4.928827286E-2
1.577102879E0,-6.387206912E-2,9.992148876E-1,5.661865696E-2
1.579104212E0,-6.631553173E-2,1.000436544E0,6.394904107E-2
1.581105545E0,-6.753726304E-2,1.000436544E0,6.883595884E-2
1.583106878E0,-6.509380043E-2,9.992148876E-1,8.349672705E-2
1.585108211E0,-6.265033782E-2,9.924953580E-1,8.716192096E-2
1.587109544E0,-6.265033782E-2,9.967713952E-1,1.012118235E-1
1.589110910E0,-6.326120347E-2,9.955496788E-1,1.109856665E-1
1.591112243E0,-6.081774458E-2,9.906627536E-1,1.189269125E-1
1.593113576E0,-6.203947589E-2,9.967713952E-1,1.293116212E-1
1.595114942E0,-6.081774458E-2,9.973822832E-1,1.378637403E-1
1.597116275E0,-6.203947589E-2,9.967713952E-1,1.513027698E-1
1.599117608E0,-6.142860651E-2,9.918845296E-1,1.647417992E-1
1.601118974E0,-6.203947589E-2,9.937170744E-1,1.739047915E-1
1.603120307E0,-6.203947589E-2,9.937170744E-1,1.867329627E-1
1.605121640E0,-5.959601328E-2,9.900518656E-1,1.965067834E-1
1.607123006E0,-6.142860651E-2,9.869975448E-1,2.032263130E-1
1.609124339E0,-5.898514763E-2,9.833323956E-1,2.203305364E-1
1.611125672E0,-6.020687893E-2,9.778345823E-1,2.301043868E-1
1.613127038E0,-6.081774458E-2,9.802780747E-1,2.337695807E-1
1.615128371E0,-6.265033782E-2,9.821106791E-1,2.447651476E-1
1.617129704E0,-6.570466608E-2,9.741694331E-1,2.478194684E-1
1.619131070E0,-6.387206912E-2,9.625629783E-1,2.575933337E-1
1.621132403E0,-6.692639738E-2,9.564543366E-1,2.643128335E-1
1.625132635E0,-7.120245695E-2,9.271327853E-1,2.728649676E-1
1.627133968E0,-7.303504646E-2,9.130828977E-1,2.783627212E-1
1.629135301E0,-7.608937472E-2,9.002547264E-1,2.722540796E-1
1.631135967E0,-7.242418826E-2,8.794853091E-1,2.740866840E-1
1.633137300E0,-7.303504646E-2,8.678788543E-1,2.728649676E-1
1.635138633E0,-7.059159130E-2,8.648245335E-1,2.740866840E-1
1.637139999E0,-7.120245695E-2,8.446659446E-1,2.716432214E-1
1.639141332E0,-6.936985999E-2,8.348921537E-1,2.679780126E-1
1.641142665E0,-6.998071820E-2,8.269508481E-1,2.661454380E-1
1.643144031E0,-6.631553173E-2,8.153443933E-1,2.582041919E-1
1.645145364E0,-6.448293477E-2,8.202313781E-1,2.545390129E-1
1.647146697E0,-6.387206912E-2,8.153443933E-1,2.520955205E-1
1.649147730E0,-6.142860651E-2,8.135118484E-1,2.417108268E-1
1.651149063E0,-6.387206912E-2,8.232856989E-1,2.423216850E-1
1.653150396E0,-6.448293477E-2,8.361138701E-1,2.319369763E-1
1.655151729E0,-6.570466608E-2,8.446659446E-1,2.282717824E-1
1.657153062E0,-6.509380043E-2,8.483311534E-1,2.258283198E-1
1.659154428E0,-6.814812124E-2,8.709331751E-1,2.252174616E-1
1.661155761E0,-6.753726304E-2,8.874264956E-1,2.154436260E-1
1.663156894E0,-6.692639738E-2,9.014764428E-1,2.148327529E-1
1.665158260E0,-7.242418826E-2,9.265218973E-1,2.123892903E-1
1.667159593E0,-7.303504646E-2,9.393500686E-1,2.093349546E-1
1.669160926E0,-7.181331515E-2,9.656172991E-1,2.123892903E-1
1.671162126E0,-7.486764342E-2,9.949388504E-1,2.038371712E-1
1.673163359E0,-7.547850907E-2,1.016929984E0,2.032263130E-1
1.675164692E0,-7.120245695E-2,1.046251416E0,2.026154548E-1
1.677165725E0,-6.936985999E-2,1.085346937E0,1.989502609E-1
1.679166858E0,-7.059159130E-2,1.104283690E0,2.020045817E-1
1.681168191E0,-6.387206912E-2,1.145822525E0,2.056697756E-1
1.683169557E0,-6.081774458E-2,1.183085322E0,1.977285296E-1
1.685170890E0,-6.203947589E-2,1.207519889E0,2.013937235E-1
1.687172223E0,-5.593081936E-2,1.247226238E0,2.013937235E-1
1.689173589E0,-4.921130463E-2,1.264330387E0,2.013937235E-1
1.691174922E0,-4.860043898E-2,1.297927976E0,1.977285296E-1
1.693176255E0,-4.310265183E-2,1.334579945E0,1.983393878E-1
1.695177621E0,-4.127005860E-2,1.349240780E0,1.952850670E-1
1.697178954E0,-3.821573034E-2,1.381616592E0,1.946741939E-1
1.699180287E0,-3.271793947E-2,1.404829383E0,1.952850670E-1
1.701181653E0,-3.210707754E-2,1.417046785E0,1.928416044E-1
1.703182986E0,-2.722015604E-2,1.437816143E0,1.916198730E-1
1.705184319E0,-2.844188549E-2,1.462250710E0,1.867329627E-1
1.707185685E0,-2.722015604E-2,1.476300716E0,1.861220896E-1
1.709187151E0,-2.477669530E-2,1.494015694E0,1.824568957E-1
1.711188484E0,-2.722015604E-2,1.517839432E0,1.806242913E-1
1.713190550E0,-2.111150324E-2,1.527002454E0,1.824568957E-1
1.715191883E0,-1.866804063E-2,1.545328379E0,1.769591123E-1
1.717193216E0,-1.622457989E-2,1.549604535E0,1.739047915E-1
1.719194549E0,-1.133765932E-2,1.559378266E0,1.604657471E-1
1.721195882E0,-7.061602082E-3,1.573428273E0,1.659635305E-1
1.723197115E0,-9.505063295E-3,1.574039102E0,1.653526723E-1
1.725198448E0,-2.174680121E-3,1.574039102E0,1.561896950E-1
1.727199781E0,-2.785545541E-3,1.573428273E0,1.580222994E-1
1.729201147E0,-4.007276148E-3,1.570373893E0,1.537462324E-1
1.731202647E0,2.101376420E-3,1.563654423E0,1.513027698E-1
1.733205913E0,1.004262455E-2,1.559989095E0,1.488593072E-1
1.735207279E0,5.155702587E-3,1.559378266E0,1.451941282E-1
1.737208945E0,1.126435492E-2,1.553880453E0,1.409180611E-1
1.739210478E0,1.676214300E-2,1.552047968E0,1.421397924E-1
1.741211844E0,2.531425655E-2,1.548993707E0,1.384745985E-1
1.743213177E0,2.225993015E-2,1.550215364E0,1.311442107E-1
1.745214210E0,2.409252524E-2,1.549604535E0,1.287007630E-1
1.747215876E0,3.020117804E-2,1.548382640E0,1.268681586E-1
1.749217209E0,3.020117804E-2,1.547771811E0,1.207595095E-1
1.751218542E0,3.081204183E-2,1.551437020E0,1.238138378E-1
1.753219908E0,3.875329345E-2,1.544106722E0,1.183160469E-1
1.755221241E0,3.936415538E-2,1.547160983E0,1.189269125E-1
1.757226774E0,4.364021122E-2,1.541663170E0,1.152617186E-1
1.759228140E0,4.486194253E-2,1.550215364E0,1.097639278E-1
1.761229473E0,4.486194253E-2,1.548382640E0,1.103747934E-1
1.763230806E0,4.425108060E-2,1.552047968E0,1.091530696E-1
1.765232172E0,4.425108060E-2,1.549604535E0,9.999009222E-2
1.767233505E0,4.364021122E-2,1.552047968E0,9.999009222E-2
1.769235005E0,4.852713272E-2,1.552047968E0,1.012118235E-1
1.771236371E0,4.791627079E-2,1.552658796E0,9.632489830E-2
1.773237004E0,4.669453949E-2,1.550215364E0,9.449230134E-2
1.775238337E0,4.852713272E-2,1.550215364E0,9.632489830E-2
1.777239703E0,4.913800210E-2,1.543495893E0,9.327057004E-2
1.779241036E0,4.913800210E-2,1.548382640E0,9.082710743E-2
1.781242369E0,4.852713272E-2,1.542885065E0,9.082710743E-2
1.783244035E0,5.341405794E-2,1.541663170E0,9.204884619E-2
1.785245368E0,5.524665490E-2,1.536165357E0,9.327057004E-2
1.787246701E0,5.585751683E-2,1.537998080E0,8.716192096E-2
1.789248034E0,5.830097944E-2,1.536776304E0,9.021624923E-2
1.791249367E0,6.074443832E-2,1.522115469E0,8.899451792E-2
1.795250200E0,6.440962851E-2,1.512952566E0,8.655105531E-2
1.797254100E0,6.624222547E-2,1.500735283E0,8.716192096E-2
1.799255466E0,6.746395677E-2,1.497070074E0,8.655105531E-2
1.801256799E0,7.174001634E-2,1.493404865E0,8.227499574E-2
1.803258132E0,7.296174765E-2,1.487907052E0,8.105327189E-2
1.805259798E0,7.479434460E-2,1.479354978E0,8.105327189E-2
1.807260831E0,7.601606846E-2,1.478133202E0,8.166413009E-2
1.809262164E0,7.723779976E-2,1.480576634E0,7.983153313E-2
1.811263530E0,7.723779976E-2,1.481187582E0,7.494460791E-2
1.813264863E0,8.212472498E-2,1.476300716E0,7.250115275E-2
1.815266196E0,8.395732194E-2,1.473857164E0,6.822510064E-2
1.819265128E0,8.762251586E-2,1.476911545E0,6.700336188E-2
1.821266461E0,9.067683667E-2,1.478133202E0,5.845125020E-2
1.823267827E0,9.434202313E-2,1.482409358E0,5.967298150E-2
1.825269160E0,1.010615453E-1,1.485463619E0,5.967298150E-2
1.827270493E0,1.090027913E-1,1.489739656E0,5.784038454E-2
1.829271859E0,1.132788509E-1,1.496459246E0,5.906211957E-2
1.831273192E0,1.224418357E-1,1.500124335E0,5.967298150E-2
1.833274525E0,1.328265369E-1,1.506232977E0,6.089471281E-2
1.835275891E0,1.334374100E-1,1.507454753E0,5.845125020E-2
1.837277224E0,1.419895142E-1,1.517839432E0,5.722952262E-2
1.839278557E0,1.426003873E-1,1.513563514E0,5.417519435E-2
1.841279923E0,1.493199021E-1,1.520282984E0,5.845125020E-2
1.843281256E0,1.517633647E-1,1.525169849E0,5.845125020E-2
1.845282589E0,1.578720063E-1,1.525169849E0,5.600779131E-2
1.847283955E0,1.548176855E-1,1.536776304E0,5.417519435E-2
1.849285288E0,1.578720063E-1,1.536165357E0,5.906211957E-2
1.851286621E0,1.609263420E-1,1.538608909E0,5.539692566E-2
1.853287987E0,1.621480733E-1,1.544717550E0,5.784038454E-2
1.855289320E0,1.652023941E-1,1.546550155E0,5.478606001E-2
1.859289419E0,1.707001776E-1,1.555713177E0,5.784038454E-2
1.861290752E0,1.731436402E-1,1.555102348E0,5.967298150E-2
1.863291752E0,1.743653715E-1,1.552047968E0,6.089471281E-2
1.865299685E0,1.755871177E-1,1.552047968E0,6.578163058E-2
1.867301018E0,1.749762446E-1,1.550826192E0,6.211644411E-2
1.869302384E0,1.829174906E-1,1.552047968E0,6.455990672E-2
1.871303717E0,1.902478784E-1,1.542273998E0,6.883595884E-2
1.873305050E0,1.890261322E-1,1.542885065E0,7.005769014E-2
1.875306416E0,1.939130723E-1,1.536165357E0,7.311201841E-2
1.877307749E0,1.933021992E-1,1.524558902E0,6.944682449E-2
1.879308649E0,1.969673932E-1,1.525169849E0,7.250115275E-2
1.881310015E0,1.981891245E-1,1.510509014E0,7.555548102E-2
1.883311381E0,2.036869079E-1,1.501346111E0,7.250115275E-2
1.885312714E0,1.994108558E-1,1.497070074E0,7.433374971E-2
1.887314080E0,2.055194974E-1,1.493404865E0,7.616634667E-2
1.889315413E0,2.036869079E-1,1.481798410E0,7.860980183E-2
1.891316746E0,2.030760348E-1,1.481187582E0,7.555548102E-2
1.893318112E0,2.061303705E-1,1.476911545E0,7.616634667E-2
1.895319445E0,2.049086243E-1,1.473857164E0,7.250115275E-2
1.897320778E0,2.006325871E-1,1.466526866E0,7.311201841E-2
1.899322144E0,2.018543035E-1,1.472024560E0,7.555548102E-2
1.901323477E0,2.000217140E-1,1.469581127E0,7.494460791E-2
1.903324810E0,1.951347888E-1,1.468970180E0,7.005769014E-2
1.905326176E0,1.957456619E-1,1.475689769E0,7.250115275E-2
1.907327342E0,2.018543035E-1,1.478133202E0,6.822510064E-2
1.909328675E0,2.042977810E-1,1.482409358E0,6.822510064E-2
1.911330041E0,2.036869079E-1,1.487296224E0,6.517077237E-2
1.913331374E0,2.073521018E-1,1.489739656E0,6.517077237E-2
1.915332707E0,2.091846913E-1,1.502567887E0,6.028384715E-2
1.917333773E0,2.097955644E-1,1.500735283E0,6.211644411E-2
1.919335806E0,2.110172808E-1,1.507454753E0,5.417519435E-2
1.921337139E0,2.195694000E-1,1.517839432E0,4.867740721E-2
1.923338839E0,2.177367955E-1,1.525780797E0,4.745567590E-2
1.927334905E0,2.232345939E-1,1.544106722E0,3.462750465E-2
1.929336238E0,2.152933478E-1,1.547160983E0,3.157318011E-2
1.931337438E0,2.207911313E-1,1.555102348E0,2.668625861E-2
1.933338771E0,2.226237357E-1,1.547160983E0,2.302106842E-2
1.935340104E0,2.226237357E-1,1.554491282E0,1.385808829E-2
1.937341137E0,2.244563252E-1,1.555713177E0,1.202549320E-2
1.939342503E0,2.262889296E-1,1.555713177E0,5.305975210E-3
1.941343836E0,2.305649668E-1,1.553880453E0,-2.024407499E-3
1.943344836E0,2.397279441E-1,1.550826192E0,-7.522194646E-3
1.945346202E0,2.397279441E-1,1.543495893E0,-1.179825142E-2
1.947347535E0,2.617191076E-1,1.544106722E0,-1.546344254E-2
1.949348868E0,2.690494955E-1,1.539830565E0,-2.523728833E-2
1.951350234E0,2.782124579E-1,1.540441513E0,-3.073507361E-2
1.953351567E0,2.837102711E-1,1.535554528E0,-3.195680305E-2
1.955352900E0,2.959275544E-1,1.533111095E0,-4.295237735E-2
1.957354266E0,3.002036214E-1,1.528835058E0,-4.417410865E-2
1.959355599E0,3.130317926E-1,1.524558902E0,-5.272622406E-2
1.961356932E0,3.173078299E-1,1.522115469E0,-5.272622406E-2
1.963358298E0,3.234165013E-1,1.509287357E0,-6.250006706E-2
1.965359631E0,3.289142847E-1,1.497070074E0,-6.799785793E-2
1.967361131E0,3.362446725E-1,1.486685276E0,-6.738698483E-2
1.969362164E0,3.338012099E-1,1.477522373E0,-7.227391005E-2
1.971363497E0,3.399098516E-1,1.462861538E0,-7.532823831E-2
1.973364830E0,3.374663889E-1,1.459196448E0,-7.838255912E-2
1.975366196E0,3.411315978E-1,1.454920411E0,-8.388034999E-2
1.977367929E0,3.356337845E-1,1.447589993E0,-8.937813342E-2
1.979368562E0,3.368555307E-1,1.448200822E0,-9.059987217E-2
1.981369928E0,3.411315978E-1,1.444535613E0,-9.731938690E-2
1.983371261E0,3.374663889E-1,1.452476978E0,-1.028171703E-1
1.985372594E0,3.399098516E-1,1.462250710E0,-1.009845734E-1
1.987373960E0,3.423533440E-1,1.472635508E0,-1.052606329E-1
1.989375293E0,3.429641724E-1,1.475689769E0,-1.083149537E-1
1.991376759E0,3.478510976E-1,1.492183089E0,-1.083149537E-1
1.993378125E0,3.533489108E-1,1.502567887E0,-1.156453416E-1
1.995379458E0,3.515163064E-1,1.511730790E0,-1.156453416E-1
1.997381091E0,3.606792688E-1,1.520893812E0,-1.113692820E-1
1.999382424E0,3.722856939E-1,1.536165357E0,-1.070932299E-1
2.001383757E0,3.704531193E-1,1.537998080E0,-1.070932299E-1
2.003385390E0,3.747291863E-1,1.548382640E0,-1.070932299E-1
2.005387423E0,3.790052235E-1,1.559378266E0,-1.040389016E-1
2.007388756E0,3.832812905E-1,1.562432647E0,-1.052606329E-1
2.009390122E0,3.832812905E-1,1.572817326E0,-9.976284951E-2
2.011391455E0,3.820595741E-1,1.582591176E0,-1.046497673E-1
2.013392788E0,3.783943653E-1,1.592975974E0,-1.034280360E-1
2.015394154E0,3.832812905E-1,1.594808459E0,-1.028171703E-1
2.017395654E0,3.857247531E-1,1.597252011E0,-1.046497673E-1
2.019396987E0,3.814486861E-1,1.598473668E0,-1.022063047E-1
2.021398353E0,3.814486861E-1,1.597252011E0,-1.022063047E-1
2.023399686E0,3.777835071E-1,1.597252011E0,-9.854111820E-2
2.025401019E0,3.783943653E-1,1.583202004E0,-9.243246168E-2
2.027402385E0,3.765617609E-1,1.569763064E0,-8.449121565E-2
2.029404051E0,3.820595741E-1,1.560600042E0,-8.143688738E-2
2.031405384E0,3.783943653E-1,1.541663170E0,-7.288477570E-2
2.033406750E0,3.783943653E-1,1.533111095E0,-7.105217874E-2
2.035408083E0,3.808378279E-1,1.510509014E0,-5.883487687E-2
2.037410016E0,3.783943653E-1,1.481187582E0,-5.211535469E-2
2.039411382E0,3.820595741E-1,1.464694262E0,-4.234151542E-2
2.041412715E0,3.802269697E-1,1.437205315E0,-3.378940374E-2
2.043413715E0,3.783943653E-1,1.409716368E0,-2.584815212E-2
2.045415081E0,3.765617609E-1,1.398109913E0,-2.035036497E-2
2.047416414E0,3.759509027E-1,1.376729608E0,-3.857003292E-3
2.049417747E0,3.625118732E-1,1.368788362E0,2.862514462E-3
2.051419113E0,3.606792688E-1,1.359014511E0,1.141462848E-2
2.053420446E0,3.606792688E-1,1.355960250E0,2.363193408E-2
2.055421779E0,3.466293514E-1,1.357181907E0,2.729712427E-2
2.057423145E0,3.441859186E-1,1.360847116E0,4.256875440E-2
2.059424478E0,3.380772769E-1,1.375507951E0,5.600779131E-2
2.061425811E0,3.344120681E-1,1.376118779E0,6.272730976E-2
2.063426844E0,3.283033967E-1,1.383449078E0,7.433374971E-2
2.065427477E0,3.185295761E-1,1.396277308E0,8.166413009E-2
2.067428810E0,3.160861135E-1,1.396277308E0,9.082710743E-2
2.069430143E0,3.044796884E-1,1.399942517E0,9.754662961E-2
2.071431476E0,2.959275544E-1,1.397498965E0,1.128182635E-1
2.073432809E0,2.904297709E-1,1.392001271E0,1.164834499E-1
2.075434142E0,2.769907117E-1,1.398109913E0,1.219812408E-1
2.077435308E0,2.611082494E-1,1.394444704E0,1.244246960E-1
2.079436674E0,2.586647570E-1,1.388336062E0,1.293116212E-1
2.081438007E0,2.446148843E-1,1.387725234E0,1.378637403E-1
2.083439340E0,2.397279441E-1,1.373064399E0,1.433615237E-1
2.085440706E0,2.256780565E-1,1.361458063E0,1.433615237E-1
2.087442039E0,2.085738182E-1,1.354127526E0,1.494701654E-1
2.089443372E0,2.018543035E-1,1.344353795E0,1.494701654E-1
2.091444738E0,1.878044158E-1,1.327249527E0,1.549679637E-1
2.093446071E0,1.694784611E-1,1.314421415E0,1.561896950E-1
2.095447404E0,1.597046107E-1,1.307090998E0,1.555788219E-1
2.097448070E0,1.480981708E-1,1.290597677E0,1.586331427E-1
2.099449403E0,1.328265369E-1,1.275325894E0,1.549679637E-1
2.101450736E0,1.212200969E-1,1.265552163E0,1.568005532E-1
2.103452436E0,1.120571196E-1,1.244782686E0,1.549679637E-1
2.105453769E0,1.004506871E-1,1.234398007E0,1.531353593E-1
2.107455102E0,9.006597102E-2,1.217904687E0,1.488593072E-1
2.109456468E0,7.601606846E-2,1.205687404E0,1.458049715E-1
2.111457801E0,7.296174765E-2,1.200800419E0,1.433615237E-1
2.113459134E0,6.685309857E-2,1.193470001E0,1.305333525E-1
2.115460500E0,5.769011378E-2,1.194691777E0,1.262573004E-1
2.117461833E0,6.013357639E-2,1.196524382E0,1.177051738E-1
2.119463133E0,5.219232664E-2,1.205687404E0,1.079313383E-1
2.121464433E0,5.402491987E-2,1.216071963E0,1.006009504E-1
2.123466033E0,5.646838248E-2,1.219737172E0,9.143797308E-2
2.125467066E0,4.669453949E-2,1.234398007E0,8.227499574E-2
2.127468766E0,4.791627079E-2,1.245393515E0,7.127942145E-2
2.129470099E0,4.913800210E-2,1.260665178E0,6.700336188E-2
2.131471432E0,4.791627079E-2,1.289986730E0,5.478606001E-2
2.133472798E0,4.486194253E-2,1.306480050E0,4.684481025E-2
2.135474131E0,4.608367383E-2,1.332136512E0,3.340577707E-2
2.137475464E0,4.241848364E-2,1.362068892E0,2.302106842E-2
2.139476797E0,4.302934557E-2,1.370620966E0,1.263635792E-2
2.141478130E0,4.180761799E-2,1.392001271E0,-1.413542195E-3
2.143479463E0,3.630983084E-2,1.395666361E0,-1.546344254E-2
2.145480796E0,3.630983084E-2,1.396277308E0,-2.218296006E-2
2.147482129E0,3.142290935E-2,1.393223047E0,-3.745459020E-2
2.149483462E0,3.508809954E-2,1.373675346E0,-5.028276145E-2
2.151484795E0,3.447723389E-2,1.362068892E0,-5.700227991E-2
2.153486128E0,3.386636823E-2,1.337634325E0,-7.593910396E-2
2.155487494E0,3.081204183E-2,1.321751714E0,-7.654996216E-2
2.157489094E0,3.264463693E-2,1.283267260E0,-9.182160348E-2
2.159490427E0,3.142290935E-2,1.239284873E0,-1.119801477E-1
2.161491793E0,2.836858109E-2,1.217904687E0,-1.156453416E-1
2.163496559E0,3.081204183E-2,1.170257211E0,-1.321386993E-1
2.165497892E0,3.386636823E-2,1.116500974E0,-1.474103332E-1
2.167499258E0,3.447723389E-2,1.089622974E0,-1.522972584E-1
2.169500591E0,3.875329345E-2,1.026092887E0,-1.645145565E-1
2.171501924E0,3.814242408E-2,9.582869411E-1,-1.797861904E-1
2.173503290E0,3.753155842E-2,9.253001809E-1,-1.865057051E-1
2.175504623E0,3.875329345E-2,8.495529294E-1,-1.944469661E-1
2.177513123E0,4.302934557E-2,7.725838423E-1,-2.066642642E-1
2.179514523E0,4.547280818E-2,7.389862537E-1,-2.097185999E-1
2.181515923E0,5.097059533E-2,6.656824350E-1,-2.176598310E-1
2.183517323E0,4.974886775E-2,6.351392269E-1,-2.194924355E-1
2.185518989E0,4.913800210E-2,5.764961839E-1,-2.274336815E-1
2.187519989E0,4.852713272E-2,5.251834989E-1,-2.268228084E-1
2.189521322E0,5.219232664E-2,4.983053803E-1,-2.249902189E-1
2.191522688E0,4.486194253E-2,4.555448294E-1,-2.286554128E-1
2.193524021E0,3.875329345E-2,4.237798154E-1,-2.256010920E-1
2.195525054E0,3.875329345E-2,4.133951068E-1,-2.256010920E-1
2.197526454E0,2.042733319E-2,3.889605105E-1,-2.207141668E-1
2.199527787E0,1.248608623E-2,3.804083765E-1,-2.164381146E-1
2.201529120E0,9.431759827E-3,3.694128096E-1,-2.097185999E-1
2.203530486E0,-7.061602082E-3,3.651367426E-1,-2.078859955E-1
2.205531819E0,-1.133765932E-2,3.614715636E-1,-2.048316598E-1
2.207533152E0,-2.416582778E-2,3.742997348E-1,-1.913926452E-1
2.209534518E0,-3.088534810E-2,3.944582939E-1,-1.761209965E-1
2.211535851E0,-3.577227145E-2,4.011777937E-1,-1.700123399E-1
2.213537184E0,-4.615698010E-2,4.341645241E-1,-1.529081315E-1
2.215538517E0,-4.432438314E-2,4.689838588E-1,-1.321386993E-1
2.217539583E0,-4.554611072E-2,4.946402013E-1,-1.284735054E-1
2.219540916E0,-4.982217029E-2,5.477854609E-1,-1.113692820E-1
2.221542249E0,-4.737870768E-2,6.100937724E-1,-8.937813342E-2
2.225541181E0,-4.249178618E-2,7.176060081E-1,-5.761314556E-2
2.227542514E0,-4.127005860E-2,7.615883350E-1,-4.845016450E-2
2.229543847E0,-2.355496399E-2,8.428333998E-1,-3.073507361E-2
2.231545213E0,-1.072679367E-2,9.393500686E-1,-1.912863366E-2
2.233546546E0,8.796459297E-4,9.851650000E-1,-1.363084652E-2
2.235547879E0,1.920560189E-2,1.088401198E0,4.190535401E-4
2.239543412E0,5.341405794E-2,1.224013329E0,1.935587637E-2
2.241544745E0,7.174001634E-2,1.293651938E0,2.546452917E-2
2.243546111E0,8.578991890E-2,1.348629713E0,3.584923968E-2
2.245547444E0,9.250943363E-2,1.359625340E0,3.707096726E-2
2.247548777E0,9.434202313E-2,1.371842623E0,4.012529552E-2
2.249550143E0,1.047267392E-1,1.366955757E0,4.501221329E-2
2.251551476E0,1.035050079E-1,1.353516698E0,4.379048571E-2
2.253552809E0,1.028941423E-1,1.312588692E0,4.256875440E-2
2.255554475E0,1.035050079E-1,1.288154125E0,4.073616117E-2
2.257555775E0,1.010615453E-1,1.226456761E0,4.195788875E-2
2.259557108E0,8.456818759E-2,1.156207323E0,3.279491141E-2
2.261558141E0,7.784866542E-2,1.118944407E0,3.523837402E-2
2.263559474E0,5.952271074E-2,1.030369043E0,2.912972122E-2
2.265560807E0,3.814242408E-2,9.417935610E-1,2.912972122E-2
2.267561873E0,3.875329345E-2,8.917025924E-1,2.607539296E-2
2.269563206E0,9.431759827E-3,8.019053936E-1,2.485366166E-2
2.271564539E0,-4.618141335E-3,6.919496655E-1,2.668625861E-2
2.273565905E0,-1.683544554E-2,6.388043761E-1,2.485366166E-2
2.275567471E0,-3.027448058E-2,5.196856856E-1,2.974058501E-2
2.277568804E0,-4.554611072E-2,4.585991502E-1,3.157318011E-2
2.279570170E0,-5.593081936E-2,3.388695717E-1,3.462750465E-2
2.281571503E0,-6.265033782E-2,2.160856277E-1,4.317962006E-2
2.283573169E0,-6.753726304E-2,1.531665176E-1,4.256875440E-2
2.285574502E0,-6.875899434E-2,2.977173962E-2,4.440135136E-2
2.287575835E0,-7.731110603E-2,-7.957313955E-2,5.417519435E-2
2.289577168E0,-7.853283733E-2,-1.351618767E-1,5.478606001E-2
2.291578501E0,-7.486764342E-2,-2.408415675E-1,6.272730976E-2
2.293579834E0,-7.853283733E-2,-3.306387663E-1,6.639250368E-2
2.295581200E0,-7.670024037E-2,-3.740102053E-1,7.127942145E-2
2.297582533E0,-7.608937472E-2,-4.534226656E-1,7.311201841E-2
2.299583866E0,-7.608937472E-2,-4.870202541E-1,7.494460791E-2
2.301585232E0,-7.120245695E-2,-5.407764316E-1,7.677720487E-2
2.303586565E0,-6.448293477E-2,-5.810934901E-1,7.738807797E-2
2.305587898E0,-5.898514763E-2,-5.963650942E-1,7.433374971E-2
2.307589264E0,-4.921130463E-2,-6.030846834E-1,7.616634667E-2
2.309590597E0,-4.127005860E-2,-5.926999450E-1,8.227499574E-2
2.311592030E0,-3.332880884E-2,-5.798717737E-1,8.227499574E-2
2.313593396E0,-1.439198479E-2,-5.346677303E-1,8.288586140E-2
2.315594729E0,6.377433427E-3,-4.680834413E-1,8.838365227E-2
2.317596062E0,1.859473810E-2,-4.338749647E-1,9.204884619E-2
2.319597428E0,4.180761799E-2,-3.312496245E-1,9.754662961E-2
2.321598961E0,6.807482243E-2,-2.194612771E-1,1.060987413E-1
2.323600294E0,8.701164275E-2,-1.534878314E-1,1.085421965E-1
2.325601660E0,1.175549105E-1,-2.581699751E-2,1.219812408E-1
2.327603293E0,1.346591413E-1,3.588039055E-2,1.250355542E-1
2.329604626E0,1.658132672E-1,1.702707559E-1,1.384745985E-1
2.331605992E0,1.963565201E-1,2.985524535E-1,1.445832551E-1
2.333607325E0,2.067412287E-1,3.675802350E-1,1.458049715E-1
2.335608425E0,2.299541235E-1,4.940293133E-1,1.500810385E-1
2.337609791E0,2.464474738E-1,6.070393920E-1,1.537462324E-1
2.339611124E0,2.562213242E-1,6.583520770E-1,1.604657471E-1
2.341612457E0,2.629408240E-1,7.560905218E-1,1.598548889E-1
2.343613823E0,2.702712119E-1,8.330594897E-1,1.519136280E-1
2.345615156E0,2.751581371E-1,8.611593843E-1,1.549679637E-1
2.347616489E0,2.745472789E-1,9.198024273E-1,1.537462324E-1
2.349617855E0,2.763798833E-1,9.405718446E-1,1.549679637E-1
2.351619188E0,2.733255327E-1,9.827215075E-1,1.451941282E-1
2.353620521E0,2.782124579E-1,1.006545305E0,1.390854716E-1
2.355621854E0,2.763798833E-1,1.014486551E0,1.335876733E-1
2.357623187E0,2.733255327E-1,1.033423305E0,1.299224794E-1
2.359624520E0,2.702712119E-1,1.038310289E0,1.238138378E-1
2.361625853E0,2.672168911E-1,1.034034133E0,1.146508530E-1
2.363633319E0,2.549995780E-1,1.026703835E0,1.195377707E-1
2.365634685E0,2.488909364E-1,1.012653947E0,1.085421965E-1
2.367636018E0,2.476692051E-1,1.005934358E0,1.030444205E-1
2.369637351E0,2.348410338E-1,9.833323956E-1,1.012118235E-1
2.371638617E0,2.275106460E-1,9.613412619E-1,8.471845835E-2
2.373639950E0,2.238454521E-1,9.485130906E-1,8.166413009E-2
2.375641283E0,2.159042060E-1,9.191915393E-1,7.555548102E-2
2.377642649E0,2.073521018E-1,9.045307636E-1,6.883595884E-2
2.379643982E0,2.036869079E-1,8.843721747E-1,6.028384715E-2
2.381645448E0,1.987999827E-1,8.526072502E-1,5.906211957E-2
2.383646814E0,1.963565201E-1,8.403899074E-1,5.295346305E-2
2.385648147E0,1.908587366E-1,8.306161165E-1,4.745567590E-2
2.387649480E0,1.902478784E-1,8.153443933E-1,4.379048571E-2
2.389650846E0,1.896370053E-1,8.171770573E-1,4.012529552E-2
2.391652179E0,1.841392219E-1,8.177878857E-1,3.829269856E-2
2.393653845E0,1.810849011E-1,8.135118484E-1,3.829269856E-2
2.395655211E0,1.804740280E-1,8.183987141E-1,3.890356421E-2
2.397656544E0,1.816957593E-1,8.293943405E-1,3.462750465E-2
2.399657877E0,1.835283488E-1,8.367247581E-1,3.829269856E-2
2.401659243E0,1.755871177E-1,8.562723994E-1,4.012529552E-2
2.403660943E0,1.761979610E-1,8.843721747E-1,4.134702682E-2
2.405662276E0,1.737545133E-1,8.941460848E-1,4.379048571E-2
2.407663642E0,1.652023941E-1,9.191915393E-1,5.173173547E-2
2.409664975E0,1.560394168E-1,9.485130906E-1,5.722952262E-2
2.411666308E0,1.554285586E-1,9.668390751E-1,6.150557846E-2
2.413667674E0,1.529850960E-1,9.967713952E-1,5.906211957E-2
2.415669007E0,1.468764395E-1,1.030979872E0,6.822510064E-2
2.417670340E0,1.493199021E-1,1.046862483E0,7.066855580E-2
2.419671706E0,1.371026039E-1,1.070686102E0,7.616634667E-2
2.421672906E0,1.364917308E-1,1.082292557E0,7.860980183E-2
2.425669439E0,1.346591413E-1,1.128107429E0,9.327057004E-2
2.427670772E0,1.328265369E-1,1.137881398E0,9.388143569E-2
2.429672105E0,1.352699995E-1,1.161094069E0,1.042661443E-1
2.431673438E0,1.340482682E-1,1.180641890E0,1.054878756E-1
2.433674771E0,1.364917308E-1,1.187972307E0,1.042661443E-1
2.435676137E0,1.334374100E-1,1.206298232E0,1.048770174E-1
2.437677470E0,1.413786411E-1,1.228900313E0,1.103747934E-1
2.439678803E0,1.456547081E-1,1.228289366E0,1.122073904E-1
2.441680169E0,1.401569247E-1,1.245393515E0,1.103747934E-1
2.443681502E0,1.468764395E-1,1.259443521E0,1.097639278E-1
2.445682835E0,1.468764395E-1,1.263108611E0,1.097639278E-1
2.447684201E0,1.548176855E-1,1.261276126E0,1.097639278E-1
2.449685534E0,1.560394168E-1,1.263719440E0,1.134291217E-1
2.451686867E0,1.584828794E-1,1.258832693E0,1.158725843E-1
2.453687900E0,1.554285586E-1,1.247226238E0,1.164834499E-1
2.455689233E0,1.609263420E-1,1.242950082E0,1.164834499E-1
2.457690566E0,1.603154689E-1,1.222180605E0,1.170943156E-1
2.459699032E0,1.554285586E-1,1.198967814E0,1.201486439E-1
2.461700132E0,1.535959691E-1,1.184306979E0,1.183160469E-1
2.463701098E0,1.517633647E-1,1.153763771E0,1.189269125E-1
2.465702464E0,1.474872977E-1,1.115890145E0,1.207595095E-1
2.467703797E0,1.450438350E-1,1.097564220E0,1.238138378E-1
2.469705130E0,1.383243203E-1,1.051749229E0,1.195377707E-1
2.471706496E0,1.364917308E-1,1.035866857E0,1.201486439E-1
2.473707829E0,1.267178953E-1,9.900518656E-1,1.152617186E-1
2.475709162E0,1.230526939E-1,9.411826730E-1,1.177051738E-1
2.477710528E0,1.218309626E-1,9.179697633E-1,1.158725843E-1
2.479711861E0,1.126679853E-1,8.697113991E-1,1.164834499E-1
2.481713327E0,1.047267392E-1,8.214531541E-1,1.195377707E-1
2.483714693E0,1.065593362E-1,7.896881104E-1,1.195377707E-1
2.485716026E0,9.617462009E-2,7.505927086E-1,1.250355542E-1
2.487717359E0,9.312029928E-2,7.084430456E-1,1.189269125E-1
2.489718725E0,9.067683667E-2,6.870627403E-1,1.195377707E-1
2.491720058E0,8.456818759E-2,6.485782266E-1,1.183160469E-1
2.493721391E0,8.029212803E-2,6.107046008E-1,1.146508530E-1
2.495722724E0,7.479434460E-2,5.984873176E-1,1.164834499E-1
2.497723757E0,7.051828504E-2,5.630571246E-1,1.079313383E-1
2.499725090E0,6.868569553E-2,5.502289534E-1,1.030444205E-1
2.501726423E0,6.257703155E-2,5.227400064E-1,9.815749526E-2
2.503727756E0,5.646838248E-2,4.952510595E-1,9.449230134E-2
2.505729122E0,5.097059533E-2,4.824228883E-1,9.204884619E-2
2.507730455E0,5.158146471E-2,4.604317248E-1,8.349672705E-2
2.509731788E0,4.241848364E-2,4.402731955E-1,7.311201841E-2
2.511733154E0,4.119675234E-2,4.323319495E-1,7.005769014E-2
2.513734487E0,3.936415538E-2,4.201146364E-1,6.211644411E-2
2.515735820E0,3.386636823E-2,4.048429728E-1,5.051000044E-2
2.517737186E0,3.508809954E-2,3.956800103E-1,4.745567590E-2
2.521732985E0,3.692069650E-2,3.877387643E-1,4.012529552E-2
2.523734351E0,3.630983084E-2,3.749106228E-1,3.218404949E-2
2.525735684E0,4.364021122E-2,3.688019514E-1,2.363193408E-2
2.527737017E0,4.730540514E-2,3.688019514E-1,1.996674202E-2
2.529738383E0,5.035972968E-2,3.645258844E-1,1.507981960E-2
2.531739716E0,6.013357639E-2,3.596389890E-1,2.862514462E-3
2.533741049E0,6.135530397E-2,3.565846682E-1,2.862514462E-3
2.535742415E0,6.379877031E-2,3.584172428E-1,-1.057652105E-2
2.537743748E0,5.830097944E-2,3.504759967E-1,-1.363084652E-2
2.539745081E0,6.196616963E-2,3.541411757E-1,-1.851776801E-2
2.541746447E0,6.807482243E-2,3.578063548E-1,-1.851776801E-2
2.543748013E0,6.868569553E-2,3.541411757E-1,-2.584815212E-2
2.545749346E0,6.868569553E-2,3.541411757E-1,-3.256766871E-2
2.547750712E0,6.990741938E-2,3.578063548E-1,-4.050891846E-2
2.549752045E0,7.418347150E-2,3.498651385E-1,-4.111978039E-2
2.551753378E0,7.051828504E-2,3.590281010E-1,-4.417410865E-2
2.553754744E0,6.807482243E-2,3.626933098E-1,-4.906103015E-2
2.555756077E0,6.868569553E-2,3.663584888E-1,-5.150449276E-2
2.557757710E0,6.502050161E-2,3.767431974E-1,-5.394795164E-2
2.559759076E0,6.257703155E-2,3.834626973E-1,-5.944573879E-2
2.561760109E0,5.952271074E-2,3.877387643E-1,-6.188920140E-2
2.563761442E0,6.074443832E-2,3.889605105E-1,-6.677612662E-2
2.565762775E0,5.280319229E-2,4.091190398E-1,-6.433266401E-2
2.567764108E0,5.585751683E-2,4.115625322E-1,-6.799785793E-2
2.569765441E0,5.219232664E-2,4.188929200E-1,-6.616526097E-2
2.571766774E0,4.913800210E-2,4.268341362E-1,-6.433266401E-2
2.573768107E0,4.547280818E-2,4.292776287E-1,-6.372179836E-2
2.575769473E0,4.852713272E-2,4.384405911E-1,-5.944573879E-2
2.577770806E0,4.425108060E-2,4.427166581E-1,-6.188920140E-2
2.579772139E0,4.425108060E-2,4.518796504E-1,-6.005660444E-2
2.581773505E0,3.936415538E-2,4.543230832E-1,-6.005660444E-2
2.583774538E0,3.692069650E-2,4.549339712E-1,-5.700227991E-2
2.585775871E0,3.936415538E-2,4.549339712E-1,-5.455881730E-2
2.587777237E0,3.386636823E-2,4.573774040E-1,-4.967189953E-2
2.589778570E0,3.997502103E-2,4.555448294E-1,-4.722843692E-2
2.591779903E0,3.325550631E-2,4.543230832E-1,-4.661756754E-2
2.593781269E0,3.325550631E-2,4.531013370E-1,-4.173064977E-2
2.595782602E0,2.897944674E-2,4.353862703E-1,-4.234151542E-2
2.597783935E0,3.386636823E-2,4.292776287E-1,-3.440026566E-2
2.599785301E0,2.653598599E-2,4.225580990E-1,-3.012420796E-2
2.601786634E0,2.470339090E-2,4.152277112E-1,-2.340469137E-2
2.603787734E0,2.714684978E-2,3.901822269E-1,-2.462642081E-2
2.605789100E0,2.897944674E-2,3.840735853E-1,-2.218296006E-2
2.607790433E0,2.531425655E-2,3.633041680E-1,-2.035036497E-2
2.609791766E0,2.653598599E-2,3.376478255E-1,-2.340469137E-2
2.611793132E0,2.348166145E-2,3.297065794E-1,-2.279382572E-2
2.613794432E0,2.592512220E-2,2.991633117E-1,-2.340469137E-2
2.615795765E0,2.959031239E-2,2.686200440E-1,-1.790690422E-2
2.617797131E0,2.592512220E-2,2.545701563E-1,-2.035036497E-2
2.619798464E0,3.203377500E-2,2.295246720E-1,-2.096122876E-2
2.621800097E0,3.142290935E-2,2.093661129E-1,-2.523728833E-2
2.623801463E0,3.081204183E-2,1.763793975E-1,-2.584815212E-2
2.625802796E0,3.081204183E-2,1.488904506E-1,-3.256766871E-2
2.627804129E0,3.325550631E-2,1.323971003E-1,-3.012420796E-2
2.629805495E0,2.470339090E-2,8.902566880E-2,-3.440026566E-2
2.631806828E0,2.103819884E-2,5.115202442E-2,-3.867632151E-2
2.633808161E0,1.920560189E-2,3.588039055E-2,-4.478497431E-2
2.635809494E0,1.248608623E-2,-4.436714109E-3,-4.295237735E-2
2.637811094E0,5.155702587E-3,-4.169949517E-2,-4.722843692E-2
2.639812427E0,1.490511233E-3,-6.124718115E-2,-4.967189953E-2
2.641813760E0,-5.229006521E-3,-9.667737037E-2,-5.516968668E-2
2.643815393E0,-4.007276148E-3,-1.131707281E-1,-5.639141425E-2
2.645816393E0,-1.622457989E-2,-1.382161975E-1,-6.005660444E-2
2.647817726E0,-2.538755909E-2,-1.650942713E-1,-6.372179836E-2
2.649819059E0,-2.477669530E-2,-1.730355173E-1,-6.066747382E-2
2.651820425E0,-2.966361679E-2,-1.956375390E-1,-6.372179836E-2
2.653821758E0,-2.599842474E-2,-2.060222477E-1,-6.250006706E-2
2.655823091E0,-2.722015604E-2,-2.029679269E-1,-6.127833575E-2
2.657824457E0,-2.111150324E-2,-2.127417624E-1,-6.738698483E-2
2.659825790E0,-2.050063759E-2,-2.176286727E-1,-5.944573879E-2
2.661827123E0,-2.477669530E-2,-2.157960832E-1,-5.944573879E-2
2.663828489E0,-1.927890815E-2,-2.139634788E-1,-5.700227991E-2
2.665829822E0,-2.050063759E-2,-2.078548372E-1,-5.578054860E-2
2.667831155E0,-2.477669530E-2,-2.096874416E-1,-5.394795164E-2
2.669832521E0,-2.294410020E-2,-2.078548372E-1,-4.906103015E-2
2.671833854E0,-2.416582778E-2,-2.066331208E-1,-4.845016450E-2
2.673835220E0,-3.027448058E-2,-2.133526355E-1,-4.906103015E-2
2.675837720E0,-3.699399903E-2,-2.096874416E-1,-4.722843692E-2
2.677839053E0,-3.393967450E-2,-2.133526355E-1,-4.478497431E-2
2.679840386E0,-4.188092053E-2,-2.102983147E-1,-4.478497431E-2
2.681841752E0,-4.860043898E-2,-2.041896582E-1,-4.050891846E-2
2.683843385E0,-5.104389787E-2,-1.938049495E-1,-4.173064977E-2
2.685844718E0,-5.837428197E-2,-1.858636886E-1,-4.234151542E-2
2.687846084E0,-6.203947589E-2,-1.699811965E-1,-3.806545585E-2
2.689847417E0,-6.142860651E-2,-1.608182192E-1,-3.623285890E-2
2.691848750E0,-7.120245695E-2,-1.406596750E-1,-3.745459020E-2
2.693850116E0,-7.242418826E-2,-1.308858246E-1,-3.989805281E-2
2.695851449E0,-8.036543429E-2,-1.046186164E-1,-3.012420796E-2
2.697852515E0,-8.464148641E-2,-8.323833346E-2,-2.706988342E-2
2.699853881E0,-8.586321771E-2,-7.224275917E-2,-3.012420796E-2
2.701855214E0,-9.258273244E-2,-4.475382343E-2,-2.340469137E-2
2.703856547E0,-9.258273244E-2,-1.909748092E-2,-2.096122876E-2
2.705858247E0,-9.075013548E-2,-5.047579296E-3,-2.218296006E-2
2.707859580E0,-9.441532940E-2,2.121962607E-2,-1.851776801E-2
2.709860913E0,-9.013927728E-2,4.626510292E-2,-1.668517292E-2
2.711862246E0,-9.136100858E-2,6.092586368E-2,-1.424171217E-2
2.713863579E0,-8.586321771E-2,7.680836320E-2,-1.301998179E-2
2.715864945E0,-8.403062075E-2,8.963653445E-2,-1.424171217E-2
2.717866278E0,-8.525235206E-2,1.024647057E-1,-1.057652105E-2
2.719867611E0,-8.280888945E-2,1.189580709E-1,-1.057652105E-2
2.721868977E0,-8.403062075E-2,1.207906678E-1,-9.965655394E-3
2.723870310E0,-7.853283733E-2,1.275101751E-1,-7.522194646E-3
2.725871643E0,-8.036543429E-2,1.336188316E-1,-5.689599086E-3
2.727873009E0,-8.097629249E-2,1.391166300E-1,-5.689599086E-3
2.729874342E0,-7.486764342E-2,1.446144134E-1,-7.522194646E-3
2.731875675E0,-7.303504646E-2,1.501121968E-1,-3.857003292E-3
2.733877041E0,-7.181331515E-2,1.501121968E-1,-5.689599086E-3
2.735877241E0,-6.936985999E-2,1.549991220E-1,-1.413542195E-3
2.737878574E0,-6.998071820E-2,1.629403681E-1,-3.246137872E-3
2.739879940E0,-6.814812124E-2,1.653838158E-1,-3.246137872E-3
2.741881273E0,-6.203947589E-2,1.696598828E-1,-4.467868246E-3
2.743882306E0,-5.715255439E-2,1.696598828E-1,-1.413542195E-3
2.745883672E0,-5.470909178E-2,1.733250767E-1,-5.689599086E-3
2.747885005E0,-4.860043898E-2,1.867641211E-1,-1.918116759E-4
2.749886338E0,-4.310265183E-2,1.898184419E-1,-1.413542195E-3
2.751887704E0,-4.371351749E-2,1.971488148E-1,-8.026768919E-4
2.753889037E0,-3.760486469E-2,2.099769861E-1,4.084245302E-3
2.755890370E0,-3.455053642E-2,2.191399634E-1,1.029918785E-3
2.757894203E0,-2.905275114E-2,2.228051573E-1,5.305975210E-3
2.759895203E0,-2.660928853E-2,2.411311120E-1,4.695110489E-3
2.761896569E0,-2.660928853E-2,2.392985225E-1,5.916840397E-3
2.766921916E0,-2.111150324E-2,2.515158355E-1,8.360302076E-3
2.768923249E0,-1.988977194E-2,2.564027309E-1,8.971166797E-3
2.770924582E0,-1.378112007E-2,2.600679398E-1,1.019289810E-2
2.772925948E0,-1.194852404E-2,2.673983276E-1,1.263635792E-2
2.774927281E0,-1.011592895E-2,2.667874396E-1,1.080376282E-2
2.776928614E0,-1.011592895E-2,2.661765814E-1,1.202549320E-2
2.778929947E0,-1.011592895E-2,2.692309320E-1,1.141462848E-2
2.780931280E0,-1.011592895E-2,2.643440068E-1,1.263635792E-2
2.782932613E0,-5.839871708E-3,2.570136189E-1,1.569068432E-2
2.784933946E0,-9.505063295E-3,2.619005442E-1,1.141462848E-2
2.786935279E0,-9.505063295E-3,2.515158355E-1,1.385808829E-2
2.788936612E0,-8.283332922E-3,2.447963059E-1,1.752328128E-2
2.790938412E0,-1.194852404E-2,2.417419702E-1,1.691241376E-2
2.792939745E0,-1.194852404E-2,2.289137989E-1,1.813414507E-2
2.794941111E0,-1.500285044E-2,2.276920825E-1,1.874501072E-2
2.796942444E0,-1.378112007E-2,2.270812094E-1,1.996674202E-2
2.798943777E0,-1.561371610E-2,2.111987174E-1,1.507981960E-2
2.800945143E0,-1.622457989E-2,2.020357400E-1,1.935587637E-2
2.802946476E0,-1.683544554E-2,1.947053522E-1,1.752328128E-2
2.804947809E0,-1.133765932E-2,1.830989271E-1,2.241020277E-2
2.806949175E0,-1.133765932E-2,1.696598828E-1,2.485366166E-2
2.808950508E0,-1.072679367E-2,1.653838158E-1,2.485366166E-2
2.810951841E0,-1.378112007E-2,1.488904506E-1,3.096231632E-2
2.812953207E0,-1.805717684E-2,1.452252716E-1,2.607539296E-2
2.814954540E0,-1.133765932E-2,1.323971003E-1,3.035145067E-2
2.816955873E0,-1.072679367E-2,1.195689291E-1,3.157318011E-2
2.818957239E0,-1.133765932E-2,1.134602800E-1,3.523837402E-2
2.822957771E0,-8.283332922E-3,9.330172837E-2,3.829269856E-2
2.824959104E0,-5.229006521E-3,9.269085526E-2,3.951442987E-2
2.826960770E0,-8.283332922E-3,7.864096016E-2,3.707096726E-2
2.828962070E0,-3.396410728E-3,7.131057978E-2,4.379048571E-2
2.830963370E0,3.933972213E-3,6.092586368E-2,3.829269856E-2
2.832964703E0,8.796459297E-4,6.153673306E-2,4.134702682E-2
2.834966036E0,-9.505063295E-3,5.726067722E-2,3.951442987E-2
2.836967402E0,-4.007276148E-3,5.420634896E-2,4.012529552E-2
2.838968735E0,-5.229006521E-3,4.259990901E-2,4.317962006E-2
2.840970068E0,-5.839871708E-3,4.259990901E-2,4.379048571E-2
2.842971434E0,-2.785545541E-3,4.259990901E-2,4.256875440E-2
2.844972767E0,-7.061602082E-3,3.160433471E-2,3.890356421E-2
2.846974100E0,-3.396410728E-3,3.404779360E-2,4.256875440E-2
2.848975466E0,-6.450736895E-3,3.221520409E-2,4.501221329E-2
2.850976332E0,-6.450736895E-3,3.221520409E-2,4.256875440E-2
2.852977665E0,-7.061602082E-3,2.244135737E-2,3.768183663E-2
2.854978998E0,-6.450736895E-3,2.427395247E-2,3.584923968E-2
2.856980331E0,-5.229006521E-3,2.121962607E-2,3.646010160E-2
2.858981664E0,-5.229006521E-3,1.816529967E-2,3.279491141E-2
2.860982997E0,-4.618141335E-3,1.694356836E-2,3.523837402E-2
2.862984330E0,-1.439198479E-2,1.633270457E-2,3.401664272E-2
2.864988696E0,-1.561371610E-2,1.327837724E-2,3.340577707E-2
2.866990029E0,-1.072679367E-2,9.002321400E-3,3.279491141E-2
2.868991362E0,-8.283332922E-3,5.947994534E-3,3.157318011E-2
2.870992728E0,-1.194852404E-2,2.282803645E-3,2.974058501E-2
2.872994061E0,-1.011592895E-2,-6.880175322E-3,3.035145067E-2
2.874995394E0,-8.894198574E-3,-1.115623210E-2,2.729712427E-2
2.876996760E0,-1.561371610E-2,-1.543228887E-2,2.974058501E-2
2.878998093E0,-1.378112007E-2,-2.276267298E-2,2.118847333E-2
2.880999426E0,-1.805717684E-2,-3.131478652E-2,2.118847333E-2
2.883000792E0,-1.988977194E-2,-4.047776386E-2,1.996674202E-2
2.885002125E0,-1.927890815E-2,-5.574939400E-2,1.813414507E-2
2.887003458E0,-2.050063759E-2,-5.025160685E-2,2.118847333E-2
2.889004858E0,-2.050063759E-2,-6.613410264E-2,1.263635792E-2
2.891006258E0,-2.233323269E-2,-7.712967694E-2,1.263635792E-2
2.893007591E0,-2.538755909E-2,-8.446005732E-2,1.324722357E-2
2.895008957E0,-2.355496399E-2,-9.240130335E-2,1.324722357E-2
2.897010290E0,-2.599842474E-2,-9.606649727E-2,7.138571236E-3
2.899011623E0,-3.149621189E-2,-1.143924594E-1,1.141462848E-2
2.901012989E0,-2.783101983E-2,-1.205011159E-1,7.138571236E-3
2.903014322E0,-2.722015604E-2,-1.296640933E-1,4.084245302E-3
2.905015655E0,-3.149621189E-2,-1.382161975E-1,2.862514462E-3
2.907017021E0,-2.966361679E-2,-1.504334956E-1,2.862514462E-3
2.909018354E0,-3.271793947E-2,-1.553204358E-1,-1.918116759E-4
2.911019687E0,-3.577227145E-2,-1.675377339E-1,-2.635272685E-3
2.913021053E0,-3.760486469E-2,-1.712029278E-1,-4.467868246E-3
2.915022386E0,-3.577227145E-2,-1.791441739E-1,-3.857003292E-3
2.917025886E0,-3.210707754E-2,-1.852528155E-1,1.029918785E-3
2.919027252E0,-3.516140208E-2,-1.846419722E-1,4.084245302E-3
2.921028585E0,-3.393967450E-2,-1.858636886E-1,1.640783972E-3
2.923029918E0,-3.332880884E-2,-1.913614869E-1,-5.078733433E-3
2.927029584E0,-3.271793947E-2,-1.907506138E-1,-5.078733433E-3
2.929030917E0,-2.416582778E-2,-1.931940764E-1,-3.857003292E-3
2.931032250E0,-2.966361679E-2,-1.938049495E-1,-3.857003292E-3
2.933033583E0,-2.844188549E-2,-1.901397556E-1,-3.857003292E-3
2.935034949E0,-2.416582778E-2,-1.901397556E-1,-5.689599086E-3
2.937036282E0,-2.477669530E-2,-1.913614869E-1,-4.467868246E-3
2.939037615E0,-2.660928853E-2,-1.852528155E-1,-7.522194646E-3
2.941039681E0,-2.722015604E-2,-1.834202260E-1,-5.078733433E-3
2.943041014E0,-2.050063759E-2,-1.791441739E-1,-3.246137872E-3
2.945042347E0,-1.988977194E-2,-1.693703234E-1,-8.026768919E-4
2.947043713E0,-2.233323269E-2,-1.693703234E-1,-2.024407499E-3
2.949045046E0,-2.050063759E-2,-1.602073461E-1,-5.078733433E-3
2.951046379E0,-2.050063759E-2,-1.467683166E-1,-7.522194646E-3
2.953047412E0,-2.111150324E-2,-1.437139958E-1,-5.689599086E-3
2.955048745E0,-2.416582778E-2,-1.308858246E-1,-1.413542195E-3
2.957050078E0,-1.805717684E-2,-1.198902428E-1,-6.300464272E-3
2.959051444E0,-1.744631119E-2,-1.150033250E-1,-5.078733433E-3
2.961052777E0,-2.355496399E-2,-1.058403477E-1,-5.078733433E-3
2.963054110E0,-2.111150324E-2,-1.003425568E-1,-7.522194646E-3
2.965055476E0,-2.355496399E-2,-8.995784819E-2,-2.635272685E-3
2.967056476E0,-1.805717684E-2,-8.262746781E-2,-4.467868246E-3
2.969057809E0,-1.988977194E-2,-7.224275917E-2,-7.522194646E-3
2.971059175E0,-1.683544554E-2,-6.002544984E-2,-1.413542195E-3
2.973060508E0,-1.072679367E-2,-5.025160685E-2,-6.300464272E-3
2.975062174E0,-9.505063295E-3,-4.475382343E-2,-7.522194646E-3
2.979063340E0,2.687807137E-4,-1.359969284E-2,-1.413542195E-3
2.981064673E0,-1.563815051E-3,-3.214983735E-3,-4.467868246E-3
2.983066039E0,6.377433427E-3,7.169725373E-3,-5.078733433E-3
2.985067372E0,8.210028522E-3,1.999789663E-2,-9.354790673E-3
2.987068705E0,1.065349020E-2,2.671741322E-2,-8.743925020E-3
2.989070071E0,8.210028522E-3,3.526952863E-2,-6.911329459E-3
2.991071404E0,1.248608623E-2,4.382164031E-2,-7.522194646E-3
2.993072737E0,1.859473810E-2,4.198904335E-2,-4.467868246E-3
2.995074070E0,1.859473810E-2,3.954558074E-2,-9.965655394E-3
2.997075470E0,1.859473810E-2,3.832385316E-2,-7.522194646E-3
2.999076803E0,2.103819884E-2,3.710212186E-2,-6.300464272E-3
3.001077436E0,2.348166145E-2,3.404779360E-2,-8.133059368E-3
3.003078769E0,2.836858109E-2,2.855000831E-2,-6.911329459E-3
3.005080135E0,3.447723389E-2,1.938702911E-2,-9.354790673E-3
3.007081468E0,3.569896147E-2,1.083491743E-2,-7.522194646E-3
3.009082801E0,3.875329345E-2,7.780590560E-3,-5.689599086E-3
3.011083867E0,4.058588669E-2,-6.880175322E-3,-1.118738670E-2
3.013085533E0,4.302934557E-2,-5.047579296E-3,-1.057652105E-2
3.015086866E0,5.035972968E-2,-1.359969284E-2,-1.546344254E-2
3.017088232E0,5.219232664E-2,-1.787574962E-2,-1.240911707E-2
3.019089565E0,5.280319229E-2,-2.337353677E-2,-1.546344254E-2
3.021090898E0,5.524665490E-2,-2.948218957E-2,-1.485257689E-2
3.023092264E0,6.074443832E-2,-4.780814797E-2,-1.790690422E-2
3.025093597E0,6.013357639E-2,-5.025160685E-2,-1.790690422E-2
3.027095263E0,6.135530397E-2,-6.979929656E-2,-1.912863366E-2
3.029096629E0,7.112915069E-2,-8.323833346E-2,-2.035036497E-2
3.031097962E0,7.051828504E-2,-8.751438558E-2,-1.729603857E-2
3.033099295E0,7.357260585E-2,-1.076729447E-1,-1.973949932E-2
3.035100328E0,7.845953107E-2,-1.345510036E-1,-1.790690422E-2
3.037101661E0,7.662694156E-2,-1.473791748E-1,-2.035036497E-2
3.039102661E0,8.029212803E-2,-1.760898381E-1,-2.462642081E-2
3.041104027E0,8.212472498E-2,-1.889180094E-1,-2.706988342E-2
3.043105360E0,8.090299368E-2,-2.231264710E-1,-2.462642081E-2
3.045106693E0,8.762251586E-2,-2.555023432E-1,-2.584815212E-2
3.047108059E0,8.762251586E-2,-2.664978802E-1,-3.012420796E-2
3.049109392E0,8.884423971E-2,-2.994846106E-1,-2.768074721E-2
3.051110725E0,8.334644884E-2,-3.294170201E-1,-3.562199324E-2
3.053112091E0,8.517904580E-2,-3.483538628E-1,-3.684372827E-2
3.055113424E0,8.090299368E-2,-3.715667129E-1,-3.867632151E-2
3.057114690E0,8.090299368E-2,-3.990556598E-1,-4.417410865E-2
3.059116056E0,8.212472498E-2,-4.186033607E-1,-4.845016450E-2
3.061117389E0,8.334644884E-2,-4.418162107E-1,-4.783930257E-2
3.063118722E0,8.212472498E-2,-4.509792030E-1,-5.272622406E-2
3.065120055E0,7.662694156E-2,-4.809115827E-1,-6.005660444E-2
3.067121388E0,7.540520281E-2,-5.004593134E-1,-6.188920140E-2
3.069122721E0,7.845953107E-2,-5.138983130E-1,-6.860871613E-2
3.071125054E0,7.845953107E-2,-5.291699767E-1,-7.838255912E-2
3.073126387E0,8.212472498E-2,-5.456633568E-1,-8.082602918E-2
3.075127753E0,8.151385188E-2,-5.511611104E-1,-8.449121565E-2
3.077129086E0,8.090299368E-2,-5.664327145E-1,-9.426505864E-2
3.079130419E0,9.128770232E-2,-5.762066245E-1,-9.854111820E-2
3.081131785E0,9.189856797E-2,-5.768174529E-1,-1.003737077E-1
3.083133118E0,9.861809015E-2,-5.884239078E-1,-1.034280360E-1
3.085134451E0,1.028941423E-1,-5.969760418E-1,-1.046497673E-1
3.087135817E0,1.126679853E-1,-5.926999450E-1,-1.022063047E-1
3.089137150E0,1.242744252E-1,-5.890347362E-1,-1.022063047E-1
3.091138483E0,1.316048056E-1,-5.878130198E-1,-1.022063047E-1
3.093139849E0,1.401569247E-1,-5.780391693E-1,-9.548678994E-2
3.095141182E0,1.523742229E-1,-5.700979829E-1,-9.121073037E-2
3.097142515E0,1.615372002E-1,-5.578806400E-1,-8.815640956E-2
3.099143581E0,1.700893193E-1,-5.481067896E-1,-8.510208130E-2
3.101145047E0,1.768088341E-1,-5.377220511E-1,-7.899343222E-2
3.103146380E0,1.871935427E-1,-5.193961263E-1,-8.021515608E-2
3.105147746E0,2.006325871E-1,-4.839659333E-1,-8.326948434E-2
3.107149079E0,2.049086243E-1,-4.735811949E-1,-7.410650700E-2
3.109151112E0,2.067412287E-1,-4.656399786E-1,-6.860871613E-2
3.111152478E0,2.104064226E-1,-4.680834413E-1,-6.005660444E-2
3.113153811E0,2.122390121E-1,-4.766355455E-1,-5.211535469E-2
3.115155144E0,2.122390121E-1,-5.065679550E-1,-4.478497431E-2
3.117156510E0,2.104064226E-1,-5.389437675E-1,-3.195680305E-2
3.119157843E0,2.110172808E-1,-5.615458488E-1,-2.768074721E-2
3.121159176E0,2.146824747E-1,-6.104150414E-1,-1.363084652E-2
3.123160542E0,2.134607583E-1,-6.507321000E-1,7.138571236E-3
3.125161875E0,2.214019895E-1,-6.776102185E-1,1.080376282E-2
3.127163041E0,2.293432504E-1,-7.307555079E-1,2.607539296E-2
3.129164407E0,2.421714216E-1,-7.845116854E-1,5.051000044E-2
3.131165040E0,2.446148843E-1,-8.132222891E-1,5.295346305E-2
3.133166373E0,2.586647570E-1,-8.651458621E-1,6.883595884E-2
3.135171139E0,2.684386373E-1,-9.195128679E-1,8.471845835E-2
3.137172472E0,2.714929581E-1,-9.439474344E-1,9.449230134E-2
3.139173805E0,2.794342041E-1,-9.970927238E-1,1.060987413E-1
3.141175138E0,2.788233459E-1,-1.016029596E0,1.164834499E-1
3.143176471E0,2.745472789E-1,-1.067342281E0,1.268681586E-1
3.145177837E0,2.690494955E-1,-1.118044019E0,1.433615237E-1
3.147179170E0,2.647734284E-1,-1.141256928E0,1.470267177E-1
3.149180503E0,2.476692051E-1,-1.187071800E0,1.574114263E-1
3.151181869E0,2.305649668E-1,-1.235330224E0,1.659635305E-1
3.153183202E0,2.159042060E-1,-1.257932305E0,1.708504707E-1
3.155184535E0,1.920804679E-1,-1.297638416E0,1.812351644E-1
3.157185901E0,1.627589464E-1,-1.328792572E0,1.806242913E-1
3.159187234E0,1.438221186E-1,-1.332457781E0,1.775699705E-1
3.161188434E0,1.114462614E-1,-1.353227139E0,1.830677688E-1
3.163189800E0,9.678549320E-2,-1.352005482E0,1.769591123E-1
3.165191133E0,6.990741938E-2,-1.352616310E0,1.751265079E-1
3.167192466E0,4.119675234E-2,-1.331236124E0,1.732939184E-1
3.169193066E0,2.959031239E-2,-1.317186117E0,1.696287245E-1
3.171194399E0,6.377433427E-3,-1.279923320E0,1.616874784E-1
3.173197732E0,-1.805717684E-2,-1.232886672E0,1.555788219E-1
3.175199098E0,-2.538755909E-2,-1.206619501E0,1.519136280E-1
3.177202664E0,-3.882659599E-2,-1.142478585E0,1.427506506E-1
3.179204697E0,-4.921130463E-2,-1.077726960E0,1.280898899E-1
3.181206063E0,-5.287649482E-2,-1.044740200E0,1.274790317E-1
3.183207396E0,-6.020687893E-2,-9.757124782E-1,1.189269125E-1
3.185208729E0,-6.081774458E-2,-9.494452477E-1,1.134291217E-1
3.187210262E0,-6.509380043E-2,-8.889696002E-1,1.042661443E-1
3.189212262E0,-6.753726304E-2,-8.309373856E-1,9.265970439E-2
3.191213595E0,-6.448293477E-2,-8.107787967E-1,9.082710743E-2
3.193214961E0,-7.364591211E-2,-7.747377753E-1,7.677720487E-2
3.197214194E0,-6.570466608E-2,-7.368641496E-1,6.700336188E-2
3.199215560E0,-6.631553173E-2,-7.228142619E-1,5.722952262E-2
3.201216893E0,-6.326120347E-2,-7.240359783E-1,4.317962006E-2
3.203218226E0,-5.959601328E-2,-7.240359783E-1,3.646010160E-2
3.205219559E0,-5.470909178E-2,-7.252576947E-1,2.546452917E-2
3.207220892E0,-4.615698010E-2,-7.368641496E-1,2.057760581E-2
3.209222225E0,-4.493524879E-2,-7.405293584E-1,8.971166797E-3
3.211223558E0,-4.432438314E-2,-7.478597164E-1,-3.246137872E-3
3.213224891E0,-3.760486469E-2,-7.551901340E-1,-6.911329459E-3
3.215226257E0,-3.638313338E-2,-7.637422085E-1,-1.118738670E-2
3.217227590E0,-3.149621189E-2,-7.796247005E-1,-2.584815212E-2
3.219228923E0,-2.966361679E-2,-7.814573646E-1,-3.195680305E-2
3.221230389E0,-3.210707754E-2,-7.930637002E-1,-3.928718716E-2
3.223231722E0,-3.455053642E-2,-7.955071926E-1,-5.272622406E-2
3.225233055E0,-3.882659599E-2,-7.973397970E-1,-5.883487687E-2
3.227234421E0,-4.493524879E-2,-8.010050058E-1,-7.227391005E-2
3.229235821E0,-5.287649482E-2,-8.077244759E-1,-9.059987217E-2
3.231237154E0,-5.654168874E-2,-8.083353639E-1,-9.670852125E-2
3.235238553E0,-7.486764342E-2,-8.144440055E-1,-1.223648638E-1
3.239238319E0,-9.441532940E-2,-8.095571399E-1,-1.553515792E-1
3.241239652E0,-9.380446374E-2,-8.150548935E-1,-1.663471460E-1
3.243240985E0,-1.060217768E-1,-8.089462519E-1,-1.828405112E-1
3.245242351E0,-1.084652320E-1,-8.260504603E-1,-1.962795556E-1
3.247243684E0,-1.127412841E-1,-8.236069679E-1,-2.005556226E-1
3.249244350E0,-1.127412841E-1,-8.339917064E-1,-2.133837938E-1
3.251245716E0,-1.182390749E-1,-8.449873328E-1,-2.213250250E-1
3.253247049E0,-1.176282093E-1,-8.517068028E-1,-2.231576294E-1
3.255248382E0,-1.170173511E-1,-8.706436157E-1,-2.329314798E-1
3.257249748E0,-1.188499480E-1,-8.749196529E-1,-2.317097336E-1
3.259251081E0,-1.188499480E-1,-8.920239210E-1,-2.378183901E-1
3.261252414E0,-1.237368658E-1,-9.085173011E-1,-2.378183901E-1
3.263253780E0,-1.219042689E-1,-9.158476591E-1,-2.390401214E-1
3.265255113E0,-1.280129254E-1,-9.335627556E-1,-2.341531962E-1
3.267256446E0,-1.182390749E-1,-9.543321729E-1,-2.353749275E-1
3.269257812E0,-1.243477315E-1,-9.622734189E-1,-2.329314798E-1
3.271259145E0,-1.225151345E-1,-9.726581573E-1,-2.237684876E-1
3.273260478E0,-1.219042689E-1,-9.836536646E-1,-2.127729207E-1
3.275261811E0,-1.225151345E-1,-9.873189330E-1,-2.048316598E-1
3.277263144E0,-1.292346567E-1,-9.922057986E-1,-1.962795556E-1
3.279264477E0,-1.292346567E-1,-9.903732538E-1,-1.846731156E-1
3.281265710E0,-1.310672462E-1,-9.842646122E-1,-1.712340862E-1
3.283267043E0,-1.383976340E-1,-9.757124782E-1,-1.553515792E-1
3.285268409E0,-1.390084922E-1,-9.677711725E-1,-1.467994750E-1
3.287269742E0,-1.371759027E-1,-9.537212849E-1,-1.303061098E-1
3.289271075E0,-1.341215670E-1,-9.366170764E-1,-1.107584238E-1
3.291272441E0,-1.341215670E-1,-9.268432856E-1,-1.022063047E-1
3.293273774E0,-1.341215670E-1,-9.219563007E-1,-8.937813342E-2
3.295274407E0,-1.316781193E-1,-9.066846967E-1,-6.738698483E-2
3.297275773E0,-1.328998357E-1,-8.908022046E-1,-5.761314556E-2
3.299277106E0,-1.347324401E-1,-8.804174662E-1,-4.356324300E-2
3.301278439E0,-1.328998357E-1,-8.645349741E-1,-3.256766871E-2
3.303279805E0,-1.371759027E-1,-8.529285192E-1,-1.607430913E-2
3.305281138E0,-1.316781193E-1,-8.352134228E-1,2.251649275E-3
3.307282404E0,-1.310672462E-1,-8.315482736E-1,1.202549320E-2
3.309283770E0,-1.353433132E-1,-8.040593266E-1,2.729712427E-2
3.311285103E0,-1.328998357E-1,-7.832899094E-1,4.562308267E-2
3.313286436E0,-1.383976340E-1,-7.753486037E-1,5.478606001E-2
3.315287802E0,-1.328998357E-1,-7.539683580E-1,6.883595884E-2
3.317289135E0,-1.377867609E-1,-7.344206572E-1,8.166413009E-2
3.319290468E0,-1.341215670E-1,-7.295337319E-1,8.960537612E-2
3.321291834E0,-1.426736861E-1,-7.160947323E-1,9.815749526E-2
3.323293167E0,-1.451171488E-1,-7.136512399E-1,1.122073904E-1
3.325294500E0,-1.500040740E-1,-7.069317698E-1,1.195377707E-1
3.327295866E0,-1.481714845E-1,-7.069317698E-1,1.213703677E-1
3.329297199E0,-1.530583948E-1,-7.002122402E-1,1.250355542E-1
3.331298532E0,-1.506149322E-1,-7.014339566E-1,1.299224794E-1
3.333299898E0,-1.603887826E-1,-6.977687478E-1,1.372528672E-1
3.335301231E0,-1.640539765E-1,-6.941035986E-1,1.378637403E-1
3.337302564E0,-1.628322452E-1,-7.105969191E-1,1.470267177E-1
3.339303930E0,-1.701626331E-1,-7.209816575E-1,1.506919116E-1
3.341305263E0,-1.781038642E-1,-7.222033739E-1,1.531353593E-1
3.343306596E0,-1.768821478E-1,-7.319772243E-1,1.549679637E-1
3.345307929E0,-1.903211772E-1,-7.539683580E-1,1.482484490E-1
3.347309262E0,-1.939863712E-1,-7.588552833E-1,1.543571055E-1
3.349310595E0,-2.019276172E-1,-7.667965889E-1,1.519136280E-1
3.351317761E0,-2.092579901E-1,-7.759595513E-1,1.537462324E-1
3.353319094E0,-2.135340571E-1,-7.802355886E-1,1.513027698E-1
3.355320460E0,-2.226970345E-1,-7.839007378E-1,1.537462324E-1
3.357321793E0,-2.269730866E-1,-7.912311554E-1,1.519136280E-1
3.359324859E0,-2.343034595E-1,-7.967289686E-1,1.519136280E-1
3.361326225E0,-2.416338474E-1,-8.101679683E-1,1.494701654E-1
3.363327558E0,-2.434664518E-1,-8.126114607E-1,1.506919116E-1
3.365328891E0,-2.520185709E-1,-8.181092143E-1,1.494701654E-1
3.367330324E0,-2.526294291E-1,-8.291047812E-1,1.464158446E-1
3.369331657E0,-2.544620335E-1,-8.339917064E-1,1.427506506E-1
3.371333690E0,-2.501859665E-1,-8.425438404E-1,1.403071880E-1
3.373335056E0,-2.501859665E-1,-8.455981612E-1,1.354202777E-1
3.375336389E0,-2.501859665E-1,-8.498741984E-1,1.335876733E-1
3.377337722E0,-2.477425039E-1,-8.553720117E-1,1.305333525E-1
3.379339655E0,-2.416338474E-1,-8.596480489E-1,1.250355542E-1
3.381340988E0,-2.385795265E-1,-8.590371609E-1,1.244246960E-1
3.383342321E0,-2.343034595E-1,-8.523176908E-1,1.195377707E-1
3.385343687E0,-2.275839597E-1,-8.510959744E-1,1.195377707E-1
3.387345020E0,-2.263622284E-1,-8.431547284E-1,1.140399873E-1
3.389346353E0,-2.251404822E-1,-8.382677436E-1,1.048770174E-1
3.391347719E0,-2.196426988E-1,-8.394895196E-1,1.067096069E-1
3.393349052E0,-2.171992511E-1,-8.303265572E-1,9.937922657E-2
3.395350385E0,-2.165883780E-1,-8.278830647E-1,8.532932401E-2
3.397352085E0,-2.190318406E-1,-8.266612887E-1,7.983153313E-2
3.399354451E0,-2.202535719E-1,-8.315482736E-1,6.761422753E-2
3.401355784E0,-2.190318406E-1,-8.370460272E-1,5.234259740E-2
3.403357150E0,-2.196426988E-1,-8.352134228E-1,4.745567590E-2
3.405358483E0,-2.208644450E-1,-8.510959744E-1,3.096231632E-2
3.407359816E0,-2.202535719E-1,-8.553720117E-1,2.729712427E-2
3.409361182E0,-2.171992511E-1,-8.645349741E-1,1.263635792E-2
3.413358015E0,-2.153666466E-1,-8.908022046E-1,-2.635272685E-3
3.415359348E0,-2.141449153E-1,-9.134041667E-1,-2.035036497E-2
3.417360681E0,-2.190318406E-1,-9.323409796E-1,-3.562199324E-2
3.421361614E0,-2.294165492E-1,-9.567756057E-1,-5.822401121E-2
3.423362947E0,-2.361360639E-1,-9.628843069E-1,-7.227391005E-2
3.425364313E0,-2.367469370E-1,-9.641060233E-1,-8.082602918E-2
3.427365646E0,-2.465207875E-1,-9.696038365E-1,-9.182160348E-2
3.429366979E0,-2.483533770E-1,-9.738798738E-1,-9.487592429E-2
3.431367645E0,-2.483533770E-1,-9.860971570E-1,-9.793025255E-2
3.433368978E0,-2.520185709E-1,-1.004423141E0,-1.089258268E-1
3.435370311E0,-2.556837499E-1,-1.018473029E0,-1.125910208E-1
3.437371677E0,-2.624032795E-1,-1.041075110E0,-1.180888042E-1
3.439372443E0,-2.654576004E-1,-1.066731334E0,-1.266409159E-1
3.441373776E0,-2.611815631E-1,-1.085668206E0,-1.278626472E-1
3.443375142E0,-2.569054961E-1,-1.115600586E0,-1.327495724E-1
3.445376475E0,-2.526294291E-1,-1.146143794E0,-1.358038932E-1
3.447377808E0,-2.556837499E-1,-1.163248062E0,-1.339713037E-1
3.449379174E0,-2.514077127E-1,-1.184017420E0,-1.321386993E-1
3.451380507E0,-2.514077127E-1,-1.201121688E0,-1.333604306E-1
3.453382540E0,-2.495751083E-1,-1.214560747E0,-1.321386993E-1
3.455383906E0,-2.483533770E-1,-1.223723769E0,-1.382473558E-1
3.457384672E0,-2.452990413E-1,-1.235330224E0,-1.339713037E-1
3.459391505E0,-2.501859665E-1,-1.258543134E0,-1.358038932E-1
3.461392871E0,-2.532402873E-1,-1.275036335E0,-1.382473558E-1
3.463394204E0,-2.501859665E-1,-1.282366872E0,-1.406908184E-1
3.465395537E0,-2.550728917E-1,-1.300692797E0,-1.413016766E-1
3.467396903E0,-2.544620335E-1,-1.315353513E0,-1.358038932E-1
3.469398236E0,-2.556837499E-1,-1.322683930E0,-1.370256245E-1
3.471406369E0,-2.593489289E-1,-1.336122870E0,-1.333604306E-1
3.473407735E0,-2.636249959E-1,-1.348951221E0,-1.321386993E-1
3.475409068E0,-2.642358840E-1,-1.347118497E0,-1.370256245E-1
3.477410401E0,-2.636249959E-1,-1.357503176E0,-1.388582140E-1
3.479411767E0,-2.636249959E-1,-1.358114123E0,-1.370256245E-1
3.481413100E0,-2.654576004E-1,-1.360557675E0,-1.382473558E-1
3.483414433E0,-2.666793168E-1,-1.364222765E0,-1.345821619E-1
3.485415766E0,-2.660684586E-1,-1.366055250E0,-1.351930201E-1
3.487417699E0,-2.679010630E-1,-1.370331407E0,-1.376364827E-1
3.489419032E0,-2.672902048E-1,-1.378883600E0,-1.413016766E-1
3.491420365E0,-2.691228092E-1,-1.382548690E0,-1.413016766E-1
3.493421698E0,-2.642358840E-1,-1.397209525E0,-1.394690871E-1
3.495423031E0,-2.611815631E-1,-1.404539943E0,-1.388582140E-1
3.497424364E0,-2.599598169E-1,-1.409426808E0,-1.388582140E-1
3.499425697E0,-2.550728917E-1,-1.422255039E0,-1.400799602E-1
3.501429630E0,-2.526294291E-1,-1.438137412E0,-1.333604306E-1
3.503430963E0,-2.459099144E-1,-1.445467830E0,-1.376364827E-1
3.505432296E0,-2.446881831E-1,-1.466237307E0,-1.370256245E-1
3.507433662E0,-2.428555936E-1,-1.466848135E0,-1.376364827E-1
3.509434995E0,-2.428555936E-1,-1.483952403E0,-1.376364827E-1
3.511436328E0,-2.300274223E-1,-1.495558858E0,-1.309169829E-1
3.513436994E0,-2.281948179E-1,-1.495558858E0,-1.296952367E-1
3.515438327E0,-2.202535719E-1,-1.501667500E0,-1.296952367E-1
3.517439893E0,-2.159775048E-1,-1.494947910E0,-1.235865951E-1
3.521436059E0,-2.049819529E-1,-1.460739493E0,-1.205322668E-1
3.523438092E0,-2.031493485E-1,-1.451576591E0,-1.199214011E-1
3.525439458E0,-2.007058859E-1,-1.447911263E0,-1.205322668E-1
3.527440791E0,-1.976515651E-1,-1.435083151E0,-1.186996698E-1
3.529442124E0,-1.994841546E-1,-1.426530957E0,-1.205322668E-1
3.533438023E0,-1.915429085E-1,-1.392933488E0,-1.254191846E-1
3.535439356E0,-1.915429085E-1,-1.385603070E0,-1.248083189E-1
3.537440722E0,-1.921537817E-1,-1.360557675E0,-1.260300577E-1
3.539442055E0,-1.836016476E-1,-1.338566422E0,-1.339713037E-1
3.541443388E0,-1.842125207E-1,-1.323905587E0,-1.290843785E-1
3.543444754E0,-1.793256104E-1,-1.306801438E0,-1.327495724E-1
3.545446087E0,-1.707734764E-1,-1.290918946E0,-1.345821619E-1
3.547446820E0,-1.671082973E-1,-1.284810305E0,-1.400799602E-1
3.549448186E0,-1.597779095E-1,-1.264040947E0,-1.425234079E-1
3.551449519E0,-1.597779095E-1,-1.253656149E0,-1.425234079E-1
3.553450852E0,-1.536692679E-1,-1.232886672E0,-1.437451541E-1
3.555452218E0,-1.469497383E-1,-1.221280217E0,-1.467994750E-1
3.557453551E0,-1.457280070E-1,-1.214560747E0,-1.492429376E-1
3.559454884E0,-1.414519548E-1,-1.180352330E0,-1.467994750E-1
3.563454983E0,-1.310672462E-1,-1.155917764E0,-1.455777436E-1
3.565456316E0,-1.212934032E-1,-1.151641607E0,-1.425234079E-1
3.567457649E0,-1.212934032E-1,-1.155306935E0,-1.370256245E-1
3.569458982E0,-1.176282093E-1,-1.160804510E0,-1.364147663E-1
3.571460348E0,-1.182390749E-1,-1.166913271E0,-1.345821619E-1
3.573461681E0,-1.133521572E-1,-1.173632860E0,-1.345821619E-1
3.575463014E0,-1.109086946E-1,-1.180963159E0,-1.315278262E-1
3.577464380E0,-1.096869633E-1,-1.189515233E0,-1.284735054E-1
3.579465713E0,-1.078543738E-1,-1.188293576E0,-1.254191846E-1
3.581467046E0,-1.102978289E-1,-1.198067427E0,-1.284735054E-1
3.583467412E0,-1.005239859E-1,-1.217615128E0,-1.241974533E-1
3.585468745E0,-1.011348516E-1,-1.226778030E0,-1.174779385E-1
3.587470078E0,-9.746965766E-2,-1.240828037E0,-1.174779385E-1
3.589471411E0,-9.258273244E-2,-1.254266977E0,-1.144236177E-1
3.591472744E0,-9.136100858E-2,-1.256710410E0,-1.138127446E-1
3.593474077E0,-8.586321771E-2,-1.262208223E0,-1.052606329E-1
3.595475443E0,-8.952841163E-2,-1.265873432E0,-1.052606329E-1
3.597476776E0,-8.586321771E-2,-1.264651775E0,-1.015954465E-1
3.599478109E0,-7.914370298E-2,-1.259153962E0,-1.009845734E-1
3.601479475E0,-8.219803125E-2,-1.256099582E0,-9.854111820E-2
3.603484108E0,-7.731110603E-2,-1.251823545E0,-9.365420043E-2
3.605485441E0,-7.670024037E-2,-1.264040947E0,-8.998900652E-2
3.607486807E0,-7.547850907E-2,-1.267095208E0,-8.388034999E-2
3.609488140E0,-7.120245695E-2,-1.281755924E0,-7.471737266E-2
3.611489473E0,-6.570466608E-2,-1.290308118E0,-6.677612662E-2
3.613490839E0,-6.448293477E-2,-1.302525401E0,-6.677612662E-2
3.615492172E0,-5.837428197E-2,-1.313520908E0,-5.761314556E-2
3.617493505E0,-5.348736048E-2,-1.327570796E0,-5.333708972E-2
3.619494871E0,-4.921130463E-2,-1.339177251E0,-4.661756754E-2
3.621496204E0,-4.432438314E-2,-1.345285892E0,-4.111978039E-2
3.623497537E0,-3.638313338E-2,-1.367887974E0,-3.562199324E-2
3.625498903E0,-3.332880884E-2,-1.373996615E0,-2.829161286E-2
3.627500236E0,-3.393967450E-2,-1.386213899E0,-2.035036497E-2
3.629501569E0,-2.783101983E-2,-1.394765973E0,-2.035036497E-2
3.631502902E0,-2.844188549E-2,-1.399652958E0,-1.179825142E-2
3.633504235E0,-2.905275114E-2,-1.411870241E0,-3.857003292E-3
3.635505535E0,-2.477669530E-2,-1.413091898E0,-3.857003292E-3
3.637506801E0,-2.783101983E-2,-1.426530957E0,2.251649275E-3
3.639508067E0,-2.783101983E-2,-1.431417942E0,3.473379882E-3
3.641509100E0,-2.844188549E-2,-1.438137412E0,8.360302076E-3
3.643510733E0,-2.722015604E-2,-1.445467830E0,1.446895394E-2
3.645512066E0,-2.355496399E-2,-1.453409076E0,1.324722357E-2
3.647513432E0,-2.355496399E-2,-1.454630852E0,1.569068432E-2
3.649514798E0,-2.172236890E-2,-1.450354695E0,2.485366166E-2
3.651516131E0,-1.683544554E-2,-1.452798247E0,2.118847333E-2
3.653517497E0,-1.500285044E-2,-1.442413449E0,2.546452917E-2
3.655518830E0,-1.194852404E-2,-1.438748240E0,2.607539296E-2
3.657520163E0,-1.072679367E-2,-1.434472322E0,2.546452917E-2
3.659521529E0,-7.061602082E-3,-1.438137412E0,2.607539296E-2
3.661523129E0,2.101376420E-3,-1.436915755E0,2.302106842E-2
3.665522528E0,1.187522057E-2,-1.424087524E0,1.691241376E-2
3.667523861E0,1.431868132E-2,-1.419811487E0,1.324722357E-2
3.669525194E0,2.164906450E-2,-1.410648584E0,9.582032450E-3
3.671526560E0,2.470339090E-2,-1.407594204E0,5.916840397E-3
3.673527893E0,2.592512220E-2,-1.403318167E0,1.029918785E-3
3.675529226E0,3.264463693E-2,-1.392322540E0,-2.635272685E-3
3.677530592E0,3.875329345E-2,-1.369109631E0,-4.467868246E-3
3.679531925E0,4.058588669E-2,-1.363000989E0,-5.078733433E-3
3.681533258E0,3.875329345E-2,-1.347118497E0,-1.301998179E-2
3.683534624E0,4.302934557E-2,-1.336122870E0,-1.485257689E-2
3.685535957E0,3.997502103E-2,-1.326959968E0,-1.851776801E-2
3.687537290E0,3.814242408E-2,-1.311688304E0,-2.401555702E-2
3.689538656E0,3.081204183E-2,-1.299471021E0,-2.829161286E-2
3.691539989E0,3.142290935E-2,-1.293973207E0,-2.829161286E-2
3.693541322E0,2.531425655E-2,-1.287864566E0,-2.401555702E-2
3.695542722E0,2.592512220E-2,-1.276258230E0,-2.340469137E-2
3.697544122E0,2.164906450E-2,-1.271371245E0,-2.218296006E-2
3.699545522E0,2.409252524E-2,-1.262819052E0,-2.401555702E-2
3.701547188E0,2.409252524E-2,-1.262208223E0,-2.340469137E-2
3.703548521E0,2.592512220E-2,-1.262208223E0,-1.851776801E-2
3.705549854E0,2.592512220E-2,-1.271371245E0,-2.218296006E-2
3.707551187E0,3.020117804E-2,-1.265873432E0,-2.096122876E-2
3.709552520E0,2.775771730E-2,-1.268927693E0,-2.462642081E-2
3.711553886E0,3.508809954E-2,-1.272593021E0,-2.584815212E-2
3.713555219E0,3.692069650E-2,-1.273814678E0,-2.523728833E-2
3.715556552E0,4.364021122E-2,-1.269538641E0,-2.157209627E-2
3.717557918E0,5.035972968E-2,-1.262208223E0,-2.706988342E-2
3.719559251E0,5.585751683E-2,-1.261597395E0,-2.706988342E-2
3.721561017E0,6.074443832E-2,-1.247547507E0,-2.951334417E-2
3.723562050E0,6.379877031E-2,-1.238384485E0,-3.256766871E-2
3.725563383E0,6.685309857E-2,-1.231054068E0,-3.378940374E-2
3.727564716E0,6.685309857E-2,-1.215171576E0,-3.562199324E-2
3.729566082E0,7.296174765E-2,-1.217615128E0,-4.050891846E-2
3.731567415E0,8.029212803E-2,-1.207841158E0,-3.989805281E-2
3.733568748E0,8.701164275E-2,-1.199900031E0,-3.745459020E-2
3.735570114E0,8.640077710E-2,-1.187682748E0,-4.295237735E-2
3.737571447E0,9.373116493E-2,-1.166302323E0,-4.111978039E-2
3.739572780E0,9.800721705E-2,-1.135759115E0,-4.845016450E-2
3.741574146E0,9.434202313E-2,-1.118654966E0,-4.967189953E-2
3.743575479E0,9.434202313E-2,-1.075283408E0,-5.333708972E-2
3.745576812E0,9.800721705E-2,-1.055735826E0,-5.272622406E-2
3.747578178E0,1.035050079E-1,-1.039853215E0,-5.150449276E-2
3.749579511E0,1.071701944E-1,-1.022749066E0,-4.539583996E-2
3.751580844E0,1.132788509E-1,-1.018473029E0,-4.111978039E-2
3.753582210E0,1.193875074E-1,-9.983144403E-1,-4.111978039E-2
3.755583543E0,1.303830743E-1,-9.891514778E-1,-3.562199324E-2
3.757585576E0,1.273287535E-1,-9.812102914E-1,-3.256766871E-2
3.759586942E0,1.291613430E-1,-9.702146649E-1,-2.890247665E-2
3.761588275E0,1.334374100E-1,-9.506669641E-1,-2.890247665E-2
3.763589608E0,1.352699995E-1,-9.506669641E-1,-2.462642081E-2
3.765590974E0,1.303830743E-1,-9.341736436E-1,-2.340469137E-2
3.767592307E0,1.261070222E-1,-9.164584875E-1,-2.035036497E-2
3.769593640E0,1.273287535E-1,-9.103498459E-1,-2.340469137E-2
3.771594973E0,1.236635596E-1,-9.054629803E-1,-1.973949932E-2
3.773596306E0,1.224418357E-1,-9.072955251E-1,-1.851776801E-2
3.775597639E0,1.163331792E-1,-9.066846967E-1,-1.912863366E-2
3.777598972E0,1.108353883E-1,-9.011868834E-1,-1.363084652E-2
3.779600305E0,1.108353883E-1,-9.042412043E-1,-1.179825142E-2
3.781600605E0,1.071701944E-1,-9.066846967E-1,-9.965655394E-3
3.783602271E0,9.983981401E-2,-9.115716219E-1,-1.179825142E-2
3.785603604E0,9.373116493E-2,-9.091281295E-1,-9.965655394E-3
3.787604970E0,8.945510536E-2,-8.962999582E-1,-3.246137872E-3
3.789606303E0,8.273559064E-2,-8.871369958E-1,2.251649275E-3
3.791607636E0,7.845953107E-2,-8.889696002E-1,4.695110489E-3
3.793609002E0,6.196616963E-2,-8.926347494E-1,8.360302076E-3
3.795610335E0,6.440962851E-2,-8.889696002E-1,7.749436423E-3
3.797611668E0,5.158146471E-2,-8.950782418E-1,7.749436423E-3
3.799613034E0,3.875329345E-2,-8.914130330E-1,1.141462848E-2
3.801614367E0,3.569896147E-2,-8.962999582E-1,1.385808829E-2
3.803615700E0,1.859473810E-2,-8.969108462E-1,1.691241376E-2
3.805617066E0,9.431759827E-3,-9.121825099E-1,2.179933712E-2
3.807618399E0,3.933972213E-3,-9.158476591E-1,2.546452917E-2
3.809619732E0,-1.255938876E-2,-9.207345843E-1,3.218404949E-2
3.811621098E0,-2.172236890E-2,-9.353953004E-1,3.523837402E-2
3.813622431E0,-2.416582778E-2,-9.360062480E-1,3.890356421E-2
3.815623764E0,-3.638313338E-2,-9.500560760E-1,4.379048571E-2
3.817624664E0,-4.371351749E-2,-9.543321729E-1,5.478606001E-2
3.819625997E0,-4.371351749E-2,-9.647168517E-1,5.845125020E-2
3.821627330E0,-5.165476725E-2,-9.622734189E-1,6.639250368E-2
3.823628696E0,-5.593081936E-2,-9.683820605E-1,7.189028710E-2
3.825630029E0,-5.959601328E-2,-9.751015902E-1,8.105327189E-2
3.827631362E0,-6.570466608E-2,-9.964818954E-1,8.227499574E-2
3.829633428E0,-6.875899434E-2,-1.005644798E0,8.899451792E-2
3.831634761E0,-6.509380043E-2,-1.025192499E0,8.716192096E-2
3.833636094E0,-6.631553173E-2,-1.041075110E0,9.449230134E-2
3.835637460E0,-6.081774458E-2,-1.054514050E0,9.510316700E-2
3.837638793E0,-5.226562917E-2,-1.066120505E0,9.876835346E-2
3.839640126E0,-4.493524879E-2,-1.069174767E0,9.754662961E-2
3.841641826E0,-3.516140208E-2,-1.072229147E0,9.815749526E-2
3.843643192E0,-2.722015604E-2,-1.069785595E0,8.899451792E-2
3.845644525E0,-2.050063759E-2,-1.069174767E0,8.899451792E-2
3.847645858E0,-1.378112007E-2,-1.077726960E0,8.349672705E-2
3.849647191E0,-1.563815051E-3,-1.075283408E0,7.311201841E-2
3.851648557E0,-1.563815051E-3,-1.072840095E0,6.639250368E-2
3.853649890E0,3.323107027E-3,-1.072229147E0,5.967298150E-2
3.855651223E0,1.370781567E-2,-1.074672580E0,3.951442987E-2
3.857652589E0,1.981646940E-2,-1.077116132E0,3.401664272E-2
3.859653922E0,1.676214300E-2,-1.072229147E0,1.874501072E-2
3.861655255E0,2.225993015E-2,-1.080781221E0,4.695110489E-3
3.863656621E0,1.676214300E-2,-1.082002997E0,1.029918785E-3
3.865657954E0,1.859473810E-2,-1.085668206E0,-1.546344254E-2
3.867659287E0,2.287079394E-2,-1.101550698E0,-2.584815212E-2
3.869660653E0,2.836858109E-2,-1.106437564E0,-4.050891846E-2
3.871661986E0,2.592512220E-2,-1.111324549E0,-5.578054860E-2
3.873663319E0,2.836858109E-2,-1.115600586E0,-6.066747382E-2
3.875664685E0,3.753155842E-2,-1.124152660E0,-7.410650700E-2
3.877666485E0,4.058588669E-2,-1.119265795E0,-8.571294695E-2
3.879667818E0,4.669453949E-2,-1.121709228E0,-8.876727521E-2
3.881669184E0,5.646838248E-2,-1.127207041E0,-9.915198386E-2
3.883670517E0,6.318789721E-2,-1.125985384E0,-1.003737077E-1
3.885671850E0,7.112915069E-2,-1.136980891E0,-1.058714986E-1
3.887673216E0,8.151385188E-2,-1.142478585E0,-1.101475507E-1
3.889673849E0,8.762251586E-2,-1.146754742E0,-1.138127446E-1
3.891675182E0,9.189856797E-2,-1.154085040E0,-1.125910208E-1
3.893676548E0,1.004506871E-1,-1.160193682E0,-1.248083189E-1
3.895677881E0,1.016724110E-1,-1.163248062E0,-1.223648638E-1
3.897679214E0,1.102245227E-1,-1.169356704E0,-1.254191846E-1
3.899680580E0,1.102245227E-1,-1.177297950E0,-1.229757220E-1
3.901681913E0,1.090027913E-1,-1.176687121E0,-1.254191846E-1
3.903683513E0,1.059484705E-1,-1.166302323E0,-1.260300577E-1
3.905684879E0,1.041158736E-1,-1.155306935E0,-1.223648638E-1
3.907686145E0,9.678549320E-2,-1.149198294E0,-1.223648638E-1
3.909687445E0,8.823337406E-2,-1.133926511E0,-1.193105280E-1
3.911688711E0,8.212472498E-2,-1.104604959E0,-1.132018790E-1
3.913690044E0,7.845953107E-2,-1.092998505E0,-1.132018790E-1
3.915691377E0,7.479434460E-2,-1.053903222E0,-1.046497673E-1
3.917698410E0,7.418347150E-2,-1.023970842E0,-9.854111820E-2
3.919699743E0,7.235087454E-2,-1.006866574E0,-9.426505864E-2
3.921701109E0,8.090299368E-2,-9.598299265E-1,-8.510208130E-2
3.923702442E0,8.212472498E-2,-9.360062480E-1,-8.204775304E-2
3.925703775E0,9.128770232E-2,-8.901913166E-1,-7.838255912E-2
3.927704808E0,1.041158736E-1,-8.266612887E-1,-7.166304439E-2
3.929706141E0,1.090027913E-1,-8.077244759E-1,-7.166304439E-2
3.931707474E0,1.309939474E-1,-7.503031492E-1,-5.883487687E-2
3.933708840E0,1.395460516E-1,-6.953253150E-1,-5.944573879E-2
3.935710173E0,1.480981708E-1,-6.727232933E-1,-5.700227991E-2
3.937710806E0,1.627589464E-1,-6.348496675E-1,-5.944573879E-2
3.939712172E0,1.731436402E-1,-5.945325494E-1,-5.883487687E-2
3.941713505E0,1.768088341E-1,-5.780391693E-1,-6.005660444E-2
3.943714838E0,1.871935427E-1,-5.310025811E-1,-5.822401121E-2
3.945716204E0,1.890261322E-1,-5.175635219E-1,-5.822401121E-2
3.947717537E0,1.945239305E-1,-4.919071794E-1,-5.333708972E-2
3.949718870E0,2.049086243E-1,-4.803007543E-1,-5.272622406E-2
3.951720236E0,2.091846913E-1,-4.796898663E-1,-4.967189953E-2
3.953721569E0,2.122390121E-1,-4.845767915E-1,-5.883487687E-2
3.955722902E0,2.122390121E-1,-4.949615300E-1,-5.272622406E-2
3.957724268E0,2.128498852E-1,-4.888528585E-1,-5.150449276E-2
3.959725601E0,2.152933478E-1,-4.888528585E-1,-4.661756754E-2
3.961726934E0,2.165150791E-1,-5.102331042E-1,-4.417410865E-2
3.963728000E0,2.159042060E-1,-5.163418055E-1,-4.234151542E-2
3.965729333E0,2.152933478E-1,-5.352786183E-1,-3.928718716E-2
3.967730733E0,2.146824747E-1,-5.523828268E-1,-3.806545585E-2
3.969732133E0,2.134607583E-1,-5.792609453E-1,-3.806545585E-2
3.971733533E0,2.140716165E-1,-6.134693623E-1,-3.684372827E-2
3.973734866E0,2.104064226E-1,-6.244649887E-1,-3.745459020E-2
3.975736232E0,2.073521018E-1,-6.470669508E-1,-3.012420796E-2
3.979733198E0,1.981891245E-1,-7.063208818E-1,-2.401555702E-2
3.981734531E0,1.896370053E-1,-7.545792460E-1,-2.523728833E-2
3.983735864E0,1.810849011E-1,-8.010050058E-1,-2.340469137E-2
3.985737197E0,1.749762446E-1,-8.193309307E-1,-2.279382572E-2
3.987738863E0,1.725327820E-1,-8.620914817E-1,-2.462642081E-2
3.989740196E0,1.645915359E-1,-9.011868834E-1,-1.851776801E-2
3.991741229E0,1.627589464E-1,-9.225671887E-1,-1.668517292E-2
3.993742562E0,1.609263420E-1,-9.531103969E-1,-2.157209627E-2
3.995743895E0,1.566502899E-1,-9.622734189E-1,-2.218296006E-2
3.997745261E0,1.572611481E-1,-9.818211198E-1,-2.706988342E-2
3.999746594E0,1.554285586E-1,-9.952601194E-1,-3.195680305E-2
4.001747927E0,1.584828794E-1,-1.001979709E0,-3.562199324E-2
4.003749293E0,1.658132672E-1,-1.001368761E0,-3.806545585E-2
4.005750626E0,1.725327820E-1,-1.008088350E0,-4.600670561E-2
4.007751959E0,1.761979610E-1,-1.011753440E0,-4.783930257E-2
4.009753325E0,1.835283488E-1,-1.012364388E0,-5.516968668E-2
4.011754658E0,1.939130723E-1,-1.016640425E0,-6.005660444E-2
4.013755991E0,1.957456619E-1,-1.016640425E0,-6.433266401E-2
4.015757357E0,2.036869079E-1,-1.016640425E0,-6.738698483E-2
4.017758690E0,2.079629600E-1,-1.019083858E0,-6.921958178E-2
4.019760023E0,2.207911313E-1,-1.019083858E0,-7.899343222E-2
4.021761389E0,2.232345939E-1,-1.022749066E0,-7.899343222E-2
4.023762722E0,2.250671834E-1,-1.022749066E0,-8.204775304E-2
4.025764055E0,2.323975712E-1,-1.027025104E0,-8.693467826E-2
4.027765421E0,2.293432504E-1,-1.025803328E0,-8.876727521E-2
4.029766754E0,2.262889296E-1,-1.025192499E0,-8.937813342E-2
4.031768087E0,2.293432504E-1,-1.033744574E0,-9.243246168E-2
4.033769453E0,2.268997729E-1,-1.045961857E0,-9.426505864E-2
4.035770786E0,2.226237357E-1,-1.055735826E0,-9.426505864E-2
4.037772119E0,2.122390121E-1,-1.068563938E0,-9.548678994E-2
4.039773485E0,2.079629600E-1,-1.074672580E0,-9.915198386E-2
4.041774818E0,2.006325871E-1,-1.080781221E0,-9.426505864E-2
4.043776151E0,1.878044158E-1,-1.090555191E0,-9.915198386E-2
4.045777517E0,1.804740280E-1,-1.094831228E0,-9.915198386E-2
4.047778850E0,1.737545133E-1,-1.099718094E0,-9.365420043E-2
4.049780183E0,1.639806628E-1,-1.097274661E0,-9.182160348E-2
4.051781849E0,1.572611481E-1,-1.100328922E0,-8.815640956E-2
4.053783182E0,1.505416334E-1,-1.107048512E0,-8.326948434E-2
4.055784515E0,1.389351934E-1,-1.111935377E0,-8.388034999E-2
